level_loop.thisRepN,level_loop.thisTrialN,level_loop.thisN,level_loop.thisIndex,practiceRepeat.thisRepN,practiceRepeat.thisTrialN,practiceRepeat.thisN,practiceRepeat.thisIndex,practice_loop.thisRepN,practice_loop.thisTrialN,practice_loop.thisN,practice_loop.thisIndex,blokk_loop.thisRepN,blokk_loop.thisTrialN,blokk_loop.thisN,blokk_loop.thisIndex,trial_loop.thisRepN,trial_loop.thisTrialN,trial_loop.thisN,trial_loop.thisIndex,instr_instr.started,instr_instr.stopped,instr_tovabb.keys,instr_tovabb.rt,instr_tovabb.started,instr_tovabb.stopped,kezesseg_instr.started,kezesseg_instr.stopped,kezesseg_resp.keys,kezesseg_resp.rt,kezesseg_resp.started,kezesseg_resp.stopped,lvl_instr.started,lvl_instr.stopped,key_resp_2.keys,key_resp_2.rt,key_resp_2.started,key_resp_2.stopped,pract_inst_text.started,pract_inst_text.stopped,pract_inst_key.keys,pract_inst_key.rt,pract_inst_key.started,pract_inst_key.stopped,pract_stim_frakt.started,pract_stim_frakt.stopped,pract_resp.keys,pract_resp.rt,pract_resp.started,pract_resp.stopped,ISI.started,ISI.stopped,feladat_blokk,Fraktál,All_keys,All_RT,Answer_key,Answer RT,Response type,Correctness,repeat_pract_text.started,repeat_pract_text.stopped,repeat_practice_key.keys,repeat_practice_key.rt,repeat_practice_key.started,repeat_practice_key.stopped,szunet_text.started,szunet_text.stopped,szunet_key.keys,szunet_key.rt,szunet_key.started,szunet_key.stopped,stim_frakt.started,stim_frakt.stopped,key_resp.keys,key_resp.started,key_resp.stopped,trial_ISI.started,trial_ISI.stopped,key_resp.rt,blokk_szun_text.started,blokk_szun_text.stopped,blokk_szun_resp.keys,blokk_szun_resp.rt,blokk_szun_resp.started,blokk_szun_resp.stopped,text.started,text.stopped,end_keys.keys,end_keys.rt,end_keys.started,end_keys.stopped,Azonosító,Életkor (év),Nem,Domináns kéz,date,expName,psychopyVersion,frameRate,
,,,,,,,,,,,,,,,,,,,,22.079359900000043,None,space,1.8000466000000301,22.079359900000043,None,,,,,,,,,,,,,,,,,,,,,,,,,,,,,,,,,,,,,,,,,,,,,,,,,,,,,,,,,,,,,,,,,,,alexproba_nobuttn,24,férfi,jobb,2021_Mar_10_1224,nback_task_v1,2021.1.2,60.0007800101518,
,,,,,,,,,,,,,,,,,,,,,,,,,,23.896117900000036,None,j,2.575281299999972,23.896117900000036,None,,,,,,,,,,,,,,,,,,,,,,,,,,,,,,,,,,,,,,,,,,,,,,,,,,,,,,,,,,,,,alexproba_nobuttn,24,férfi,jobb,2021_Mar_10_1224,nback_task_v1,2021.1.2,60.0007800101518,
0,0,0,0,0,0,0,0,0,0,0,0,,,,,,,,,,,,,,,,,,,,,26.52946410000004,None,space,7.469928700000025,26.52946410000004,None,34.04633430000001,None,['space'],[1.4969581999999946],34.04633430000001,None,35.8627156,None,['u'],[1.0806613000000311],35.8627156,None,0.00806313000003911,0.3080631300000391,nback_1_practice,S,['u'],[1.0806613000000311],u,1.0806613000000311,false alarm,0,,,,,,,,,,,,,,,,,,,,,,,,,,,,,,,,,alexproba_nobuttn,24,férfi,jobb,2021_Mar_10_1224,nback_task_v1,2021.1.2,60.0007800101518,
0,0,0,0,0,0,0,0,1,0,1,0,,,,,,,,,,,,,,,,,,,,,,,,,,,,,,,,,37.27939500000002,39.079460100000006,None,,37.27939500000002,None,0.0111436299999923,0.3111436299999923,nback_1_practice,L,None,[],no_resp,None,correct rejection,1,,,,,,,,,,,,,,,,,,,,,,,,,,,,,,,,,alexproba_nobuttn,24,férfi,jobb,2021_Mar_10_1224,nback_task_v1,2021.1.2,60.0007800101518,
0,0,0,0,0,0,0,0,2,0,2,0,,,,,,,,,,,,,,,,,,,,,,,,,,,,,,,,,40.87951680000003,42.6796827,None,,40.87951680000003,40.579528700000026,0.01374952999992729,0.3137495299999273,nback_1_practice,D,None,[],no_resp,None,correct rejection,1,,,,,,,,,,,,,,,,,,,,,,,,,,,,,,,,,alexproba_nobuttn,24,férfi,jobb,2021_Mar_10_1224,nback_task_v1,2021.1.2,60.0007800101518,
0,0,0,0,0,0,0,0,3,0,3,0,,,,,,,,,,,,,,,,,,,,,,,,,,,,,,,,,44.479708500000015,46.27996760000002,None,,44.479708500000015,44.17969930000004,0.01441962999996349,0.3144196299999635,nback_1_practice,Z,None,[],no_resp,None,correct rejection,1,,,,,,,,,,,,,,,,,,,,,,,,,,,,,,,,,alexproba_nobuttn,24,férfi,jobb,2021_Mar_10_1224,nback_task_v1,2021.1.2,60.0007800101518,
0,0,0,0,0,0,0,0,4,0,4,0,,,,,,,,,,,,,,,,,,,,,,,,,,,,,,,,,48.08008590000003,None,['u'],[0.4233904000000166],48.08008590000003,47.78003590000003,0.014475429999947664,0.31447542999994765,nback_1_practice,Z,['u'],[0.4233904000000166],u,0.4233904000000166,hit,1,,,,,,,,,,,,,,,,,,,,,,,,,,,,,,,,,alexproba_nobuttn,24,férfi,jobb,2021_Mar_10_1224,nback_task_v1,2021.1.2,60.0007800101518,
0,0,0,0,0,0,0,0,5,0,5,0,,,,,,,,,,,,,,,,,,,,,,,,,,,,,,,,,48.84667950000005,50.646780300000046,None,,48.84667950000005,None,0.011461029999907169,0.31146102999990716,nback_1_practice,Q,None,[],no_resp,None,correct rejection,1,,,,,,,,,,,,,,,,,,,,,,,,,,,,,,,,,alexproba_nobuttn,24,férfi,jobb,2021_Mar_10_1224,nback_task_v1,2021.1.2,60.0007800101518,
0,0,0,0,0,0,0,0,6,0,6,0,,,,,,,,,,,,,,,,,,,,,,,,,,,,,,,,,52.44686010000004,54.2468834,None,,52.44686010000004,52.14683640000004,0.013909630000000561,0.31390963000000055,nback_1_practice,L,None,[],no_resp,None,correct rejection,1,,,,,,,,,,,,,,,,,,,,,,,,,,,,,,,,,alexproba_nobuttn,24,férfi,jobb,2021_Mar_10_1224,nback_task_v1,2021.1.2,60.0007800101518,
0,0,0,0,0,0,0,0,7,0,7,0,,,,,,,,,,,,,,,,,,,,,,,,,,,,,,,,,56.04693950000001,57.847015,None,,56.04693950000001,55.7469188,0.013638029999924584,0.3136380299999246,nback_1_practice,Z,None,[],no_resp,None,correct rejection,1,,,,,,,,,,,,,,,,,,,,,,,,,,,,,,,,,alexproba_nobuttn,24,férfi,jobb,2021_Mar_10_1224,nback_task_v1,2021.1.2,60.0007800101518,
0,0,0,0,0,0,0,0,8,0,8,0,,,,,,,,,,,,,,,,,,,,,,,,,,,,,,,,,59.64704550000005,61.44701620000001,None,,59.64704550000005,59.34701670000004,0.01409012999999959,0.3140901299999996,nback_1_practice,H,None,[],no_resp,None,correct rejection,1,,,,,,,,,,,,,,,,,,,,,,,,,,,,,,,,,alexproba_nobuttn,24,férfi,jobb,2021_Mar_10_1224,nback_task_v1,2021.1.2,60.0007800101518,
0,0,0,0,0,0,0,0,9,0,9,0,,,,,,,,,,,,,,,,,,,,,,,,,,,,,,,,,63.24711430000002,65.047167,None,,63.24711430000002,62.94712080000005,0.014286830000003192,0.3142868300000032,nback_1_practice,D,None,[],no_resp,None,correct rejection,1,,,,,,,,,,,,,,,,,,,,,,,,,,,,,,,,,alexproba_nobuttn,24,férfi,jobb,2021_Mar_10_1224,nback_task_v1,2021.1.2,60.0007800101518,
0,0,0,0,0,0,0,0,10,0,10,0,,,,,,,,,,,,,,,,,,,,,,,,,,,,,,,,,66.84717690000002,68.64725490000001,None,,66.84717690000002,66.5471842,0.0140057299999512,0.3140057299999512,nback_1_practice,J,None,[],no_resp,None,correct rejection,1,,,,,,,,,,,,,,,,,,,,,,,,,,,,,,,,,alexproba_nobuttn,24,férfi,jobb,2021_Mar_10_1224,nback_task_v1,2021.1.2,60.0007800101518,
0,0,0,0,0,0,0,0,11,0,11,0,,,,,,,,,,,,,,,,,,,,,,,,,,,,,,,,,70.44725410000001,72.24735400000003,None,,70.44725410000001,70.14726870000004,0.013636929999961467,0.31363692999996146,nback_1_practice,Z,None,[],no_resp,None,correct rejection,1,,,,,,,,,,,,,,,,,,,,,,,,,,,,,,,,,alexproba_nobuttn,24,férfi,jobb,2021_Mar_10_1224,nback_task_v1,2021.1.2,60.0007800101518,
0,0,0,0,0,0,0,0,12,0,12,0,,,,,,,,,,,,,,,,,,,,,,,,,,,,,,,,,74.04741580000001,None,['u'],[0.9200589999999806],74.04741580000001,73.74733810000004,0.013943530000005921,0.3139435300000059,nback_1_practice,Z,['u'],[0.9200589999999806],u,0.9200589999999806,hit,1,,,,,,,,,,,,,,,,,,,,,,,,,,,,,,,,,alexproba_nobuttn,24,férfi,jobb,2021_Mar_10_1224,nback_task_v1,2021.1.2,60.0007800101518,
0,0,0,0,0,0,0,0,13,0,13,0,,,,,,,,,,,,,,,,,,,,,,,,,,,,,,,,,75.31412180000001,77.11412440000004,None,,75.31412180000001,None,0.011990530000048238,0.3119905300000482,nback_1_practice,L,None,[],no_resp,None,correct rejection,1,,,,,,,,,,,,,,,,,,,,,,,,,,,,,,,,,alexproba_nobuttn,24,férfi,jobb,2021_Mar_10_1224,nback_task_v1,2021.1.2,60.0007800101518,
0,0,0,0,0,0,0,0,14,0,14,0,,,,,,,,,,,,,,,,,,,,,,,,,,,,,,,,,78.914153,80.71426050000002,None,,78.914153,78.61417740000002,0.01405453000000989,0.3140545300000099,nback_1_practice,Y,None,[],no_resp,None,correct rejection,1,,,,,,,,,,,,,,,,,,,,,,,,,,,,,,,,,alexproba_nobuttn,24,férfi,jobb,2021_Mar_10_1224,nback_task_v1,2021.1.2,60.0007800101518,
0,0,0,0,0,0,0,0,15,0,15,0,,,,,,,,,,,,,,,,,,,,,,,,,,,,,,,,,82.51430100000005,84.3143488,None,,82.51430100000005,82.21427980000004,0.013566130000015164,0.31356613000001515,nback_1_practice,S,None,[],no_resp,None,correct rejection,1,,,,,,,,,,,,,,,,,,,,,,,,,,,,,,,,,alexproba_nobuttn,24,férfi,jobb,2021_Mar_10_1224,nback_task_v1,2021.1.2,60.0007800101518,
0,0,0,0,0,0,0,0,16,0,16,0,,,,,,,,,,,,,,,,,,,,,,,,,,,,,,,,,86.11435890000001,None,['u'],[0.6131780999999705],86.11435890000001,85.81435010000001,0.014035329999956048,0.31403532999995604,nback_1_practice,S,['u'],[0.6131780999999705],u,0.6131780999999705,hit,1,,,,,,,,,,,,,,,,,,,,,,,,,,,,,,,,,alexproba_nobuttn,24,férfi,jobb,2021_Mar_10_1224,nback_task_v1,2021.1.2,60.0007800101518,
0,0,0,0,0,0,0,0,17,0,17,0,,,,,,,,,,,,,,,,,,,,,,,,,,,,,,,,,87.06439940000001,88.86445840000005,None,,87.06439940000001,None,0.011580929999979617,0.3115809299999796,nback_1_practice,L,None,[],no_resp,None,correct rejection,1,,,,,,,,,,,,,,,,,,,,,,,,,,,,,,,,,alexproba_nobuttn,24,férfi,jobb,2021_Mar_10_1224,nback_task_v1,2021.1.2,60.0007800101518,
0,0,0,0,0,0,0,0,,,,,,,,,,,,,,,,,,,,,,,,,,,,,,,,,,,,,,,,,,,,,,,,,,,,,90.38119640000002,None,i,2.130318100000011,90.38119640000002,None,,,,,,,,,,,,,,,,,,,,,,,,,,,alexproba_nobuttn,24,férfi,jobb,2021_Mar_10_1224,nback_task_v1,2021.1.2,60.0007800101518,
0,0,0,0,,,,,,,,,0,0,0,0,0,0,0,0,,,,,,,,,,,,,,,,,,,,,,,,,,,,,,,,,nback_1_blokk1,H,None,[],no_resp,None,correct rejection,1,,,,,,,92.56449260000005,None,['space'],[0.7469965000000229],92.56449260000005,None,93.63123390000004,95.43127530000004,None,93.63123390000004,None,0.011054830000034599,0.3110548300000346,,,,,,,,,,,,,,alexproba_nobuttn,24,férfi,jobb,2021_Mar_10_1224,nback_task_v1,2021.1.2,60.0007800101518,
0,0,0,0,,,,,,,,,0,0,0,0,1,0,1,0,,,,,,,,,,,,,,,,,,,,,,,,,,,,,,,,,nback_1_blokk1,P,None,[],no_resp,None,correct rejection,1,,,,,,,,,,,,,97.2312996,99.0313481,None,97.2312996,96.93127660000005,0.01276593000000048,0.31276593000000047,,,,,,,,,,,,,,alexproba_nobuttn,24,férfi,jobb,2021_Mar_10_1224,nback_task_v1,2021.1.2,60.0007800101518,
0,0,0,0,,,,,,,,,0,0,0,0,2,0,2,0,,,,,,,,,,,,,,,,,,,,,,,,,,,,,,,,,nback_1_blokk1,Z,None,[],no_resp,None,correct rejection,1,,,,,,,,,,,,,100.83139400000005,102.63144800000003,None,100.83139400000005,100.53139350000004,0.012989629999992758,0.31298962999999275,,,,,,,,,,,,,,alexproba_nobuttn,24,férfi,jobb,2021_Mar_10_1224,nback_task_v1,2021.1.2,60.0007800101518,
0,0,0,0,,,,,,,,,0,0,0,0,3,0,3,0,,,,,,,,,,,,,,,,,,,,,,,,,,,,,,,,,nback_1_blokk1,J,None,[],no_resp,None,correct rejection,1,,,,,,,,,,,,,104.4315019,106.23152140000002,None,104.4315019,104.1314471,0.013710230000015144,0.31371023000001513,,,,,,,,,,,,,,alexproba_nobuttn,24,férfi,jobb,2021_Mar_10_1224,nback_task_v1,2021.1.2,60.0007800101518,
0,0,0,0,,,,,,,,,0,0,0,0,4,0,4,0,,,,,,,,,,,,,,,,,,,,,,,,,,,,,,,,,nback_1_blokk1,H,None,[],no_resp,None,correct rejection,1,,,,,,,,,,,,,108.03156440000004,109.83167660000004,None,108.03156440000004,107.73159750000002,0.013834129999963807,0.3138341299999638,,,,,,,,,,,,,,alexproba_nobuttn,24,férfi,jobb,2021_Mar_10_1224,nback_task_v1,2021.1.2,60.0007800101518,
0,0,0,0,,,,,,,,,0,0,0,0,5,0,5,0,,,,,,,,,,,,,,,,,,,,,,,,,,,,,,,,,nback_1_blokk1,Q,None,[],no_resp,None,correct rejection,1,,,,,,,,,,,,,111.63168970000004,113.43169110000002,None,111.63168970000004,111.33171050000004,0.013328929999943284,0.3133289299999433,,,,,,,,,,,,,,alexproba_nobuttn,24,férfi,jobb,2021_Mar_10_1224,nback_task_v1,2021.1.2,60.0007800101518,
0,0,0,0,,,,,,,,,0,0,0,0,6,0,6,0,,,,,,,,,,,,,,,,,,,,,,,,,,,,,,,,,nback_1_blokk1,D,None,[],no_resp,None,correct rejection,1,,,,,,,,,,,,,115.23176570000004,117.03180980000002,None,115.23176570000004,114.93175440000005,0.013355429999990065,0.31335542999999005,,,,,,,,,,,,,,alexproba_nobuttn,24,férfi,jobb,2021_Mar_10_1224,nback_task_v1,2021.1.2,60.0007800101518,
0,0,0,0,,,,,,,,,0,0,0,0,7,0,7,0,,,,,,,,,,,,,,,,,,,,,,,,,,,,,,,,,nback_1_blokk1,J,None,[],no_resp,None,correct rejection,1,,,,,,,,,,,,,118.8318036,120.63192400000003,None,118.8318036,118.53181850000004,0.013563930000032087,0.3135639300000321,,,,,,,,,,,,,,alexproba_nobuttn,24,férfi,jobb,2021_Mar_10_1224,nback_task_v1,2021.1.2,60.0007800101518,
0,0,0,0,,,,,,,,,0,0,0,0,8,0,8,0,,,,,,,,,,,,,,,,,,,,,,,,,,,,,,,,,nback_1_blokk1,J,['u'],[0.7516404000000421],u,0.7516404000000421,hit,1,,,,,,,,,,,,,122.43194930000004,None,['u'],122.43194930000004,122.13189740000001,0.013599230000011175,0.31359923000001116,[0.7516404000000421],,,,,,,,,,,,,alexproba_nobuttn,24,férfi,jobb,2021_Mar_10_1224,nback_task_v1,2021.1.2,60.0007800101518,
0,0,0,0,,,,,,,,,0,0,0,0,9,0,9,0,,,,,,,,,,,,,,,,,,,,,,,,,,,,,,,,,nback_1_blokk1,L,None,[],no_resp,None,correct rejection,1,,,,,,,,,,,,,123.51529210000001,125.31532910000004,None,123.51529210000001,None,0.011617929999999888,0.3116179299999999,,,,,,,,,,,,,,alexproba_nobuttn,24,férfi,jobb,2021_Mar_10_1224,nback_task_v1,2021.1.2,60.0007800101518,
0,0,0,0,,,,,,,,,0,0,0,0,10,0,10,0,,,,,,,,,,,,,,,,,,,,,,,,,,,,,,,,,nback_1_blokk1,Z,None,[],no_resp,None,correct rejection,1,,,,,,,,,,,,,127.1154568,128.91545190000005,None,127.1154568,126.81539360000005,0.013456630000007408,0.3134566300000074,,,,,,,,,,,,,,alexproba_nobuttn,24,férfi,jobb,2021_Mar_10_1224,nback_task_v1,2021.1.2,60.0007800101518,
0,0,0,0,,,,,,,,,0,0,0,0,11,0,11,0,,,,,,,,,,,,,,,,,,,,,,,,,,,,,,,,,nback_1_blokk1,Z,['u'],[0.49207000000001244],u,0.49207000000001244,hit,1,,,,,,,,,,,,,130.71549510000006,None,['u'],130.71549510000006,130.41545030000003,0.013871129999984078,0.31387112999998407,[0.49207000000001244],,,,,,,,,,,,,alexproba_nobuttn,24,férfi,jobb,2021_Mar_10_1224,nback_task_v1,2021.1.2,60.0007800101518,
0,0,0,0,,,,,,,,,0,0,0,0,12,0,12,0,,,,,,,,,,,,,,,,,,,,,,,,,,,,,,,,,nback_1_blokk1,Y,None,[],no_resp,None,correct rejection,1,,,,,,,,,,,,,131.54883900000004,133.34888400000006,None,131.54883900000004,None,0.01094532999997,0.31094532999997,,,,,,,,,,,,,,alexproba_nobuttn,24,férfi,jobb,2021_Mar_10_1224,nback_task_v1,2021.1.2,60.0007800101518,
0,0,0,0,,,,,,,,,0,0,0,0,13,0,13,0,,,,,,,,,,,,,,,,,,,,,,,,,,,,,,,,,nback_1_blokk1,F,None,[],no_resp,None,correct rejection,1,,,,,,,,,,,,,135.14887290000001,136.9490101,None,135.14887290000001,134.84895040000004,0.013220030000013594,0.3132200300000136,,,,,,,,,,,,,,alexproba_nobuttn,24,férfi,jobb,2021_Mar_10_1224,nback_task_v1,2021.1.2,60.0007800101518,
0,0,0,0,,,,,,,,,0,0,0,0,14,0,14,0,,,,,,,,,,,,,,,,,,,,,,,,,,,,,,,,,nback_1_blokk1,J,['u'],[0.466536700000006],u,0.466536700000006,false alarm,0,,,,,,,,,,,,,138.74905410000002,None,['u'],138.74905410000002,138.4489992,0.013129529999957867,0.31312952999995786,[0.466536700000006],,,,,,,,,,,,,alexproba_nobuttn,24,férfi,jobb,2021_Mar_10_1224,nback_task_v1,2021.1.2,60.0007800101518,
0,0,0,0,,,,,,,,,0,0,0,0,15,0,15,0,,,,,,,,,,,,,,,,,,,,,,,,,,,,,,,,,nback_1_blokk1,J,['u'],[0.5784671000000117],u,0.5784671000000117,hit,1,,,,,,,,,,,,,139.54907160000005,None,['u'],139.54907160000005,None,0.011731029999964449,0.31173102999996444,[0.5784671000000117],,,,,,,,,,,,,alexproba_nobuttn,24,férfi,jobb,2021_Mar_10_1224,nback_task_v1,2021.1.2,60.0007800101518,
0,0,0,0,,,,,,,,,0,0,0,0,16,0,16,0,,,,,,,,,,,,,,,,,,,,,,,,,,,,,,,,,nback_1_blokk1,Y,['u'],[0.0605455999999549],u,0.0605455999999549,false alarm,0,,,,,,,,,,,,,140.4657194,None,['u'],140.4657194,None,0.01099133000002439,0.3109913300000244,[0.0605455999999549],,,,,,,,,,,,,alexproba_nobuttn,24,férfi,jobb,2021_Mar_10_1224,nback_task_v1,2021.1.2,60.0007800101518,
0,0,0,0,,,,,,,,,0,0,0,0,17,0,17,0,,,,,,,,,,,,,,,,,,,,,,,,,,,,,,,,,nback_1_blokk1,P,['u'],[0.12580700000000888],u,0.12580700000000888,false alarm,0,,,,,,,,,,,,,140.86573950000002,None,['u'],140.86573950000002,None,0.01131262999996352,0.3113126299999635,[0.12580700000000888],,,,,,,,,,,,,alexproba_nobuttn,24,férfi,jobb,2021_Mar_10_1224,nback_task_v1,2021.1.2,60.0007800101518,
0,0,0,0,,,,,,,,,0,0,0,0,18,0,18,0,,,,,,,,,,,,,,,,,,,,,,,,,,,,,,,,,nback_1_blokk1,H,['u'],[0.13909940000002052],u,0.13909940000002052,false alarm,0,,,,,,,,,,,,,141.33242710000002,None,['u'],141.33242710000002,None,0.011469329999954425,0.3114693299999544,[0.13909940000002052],,,,,,,,,,,,,alexproba_nobuttn,24,férfi,jobb,2021_Mar_10_1224,nback_task_v1,2021.1.2,60.0007800101518,
0,0,0,0,,,,,,,,,0,0,0,0,19,0,19,0,,,,,,,,,,,,,,,,,,,,,,,,,,,,,,,,,nback_1_blokk1,J,['u'],[0.1277425999999764],u,0.1277425999999764,false alarm,0,,,,,,,,,,,,,141.81572040000003,None,['u'],141.81572040000003,None,0.01132642999999689,0.3113264299999969,[0.1277425999999764],,,,,,,,,,,,,alexproba_nobuttn,24,férfi,jobb,2021_Mar_10_1224,nback_task_v1,2021.1.2,60.0007800101518,
0,0,0,0,,,,,,,,,0,0,0,0,20,0,20,0,,,,,,,,,,,,,,,,,,,,,,,,,,,,,,,,,nback_1_blokk1,J,['u'],[0.12507180000000062],u,0.12507180000000062,hit,1,,,,,,,,,,,,,142.2823894,None,['u'],142.2823894,None,0.011015829999962534,0.3110158299999625,[0.12507180000000062],,,,,,,,,,,,,alexproba_nobuttn,24,férfi,jobb,2021_Mar_10_1224,nback_task_v1,2021.1.2,60.0007800101518,
0,0,0,0,,,,,,,,,0,0,0,0,21,0,21,0,,,,,,,,,,,,,,,,,,,,,,,,,,,,,,,,,nback_1_blokk1,P,['u'],[0.13040770000003477],u,0.13040770000003477,false alarm,0,,,,,,,,,,,,,142.7490692,None,['u'],142.7490692,None,0.010826829999984966,0.31082682999998495,[0.13040770000003477],,,,,,,,,,,,,alexproba_nobuttn,24,férfi,jobb,2021_Mar_10_1224,nback_task_v1,2021.1.2,60.0007800101518,
0,0,0,0,,,,,,,,,0,0,0,0,22,0,22,0,,,,,,,,,,,,,,,,,,,,,,,,,,,,,,,,,nback_1_blokk1,D,['u'],[0.03972429999998894],u,0.03972429999998894,false alarm,0,,,,,,,,,,,,,143.21582180000001,None,['u'],143.21582180000001,None,0.011183230000028743,0.31118323000002873,[0.03972429999998894],,,,,,,,,,,,,alexproba_nobuttn,24,férfi,jobb,2021_Mar_10_1224,nback_task_v1,2021.1.2,60.0007800101518,
0,0,0,0,,,,,,,,,0,0,0,0,23,0,23,0,,,,,,,,,,,,,,,,,,,,,,,,,,,,,,,,,nback_1_blokk1,S,['u'],[0.008248500000036074],u,0.008248500000036074,false alarm,0,,,,,,,,,,,,,143.5991401,None,['u'],143.5991401,None,0.011496729999976196,0.3114967299999762,[0.008248500000036074],,,,,,,,,,,,,alexproba_nobuttn,24,férfi,jobb,2021_Mar_10_1224,nback_task_v1,2021.1.2,60.0007800101518,
0,0,0,0,,,,,,,,,0,0,0,0,24,0,24,0,,,,,,,,,,,,,,,,,,,,,,,,,,,,,,,,,nback_1_blokk1,P,['u'],[0.15439269999995986],u,0.15439269999995986,false alarm,0,,,,,,,,,,,,,143.94913960000002,None,['u'],143.94913960000002,None,0.011458129999937228,0.3114581299999372,[0.15439269999995986],,,,,,,,,,,,,alexproba_nobuttn,24,férfi,jobb,2021_Mar_10_1224,nback_task_v1,2021.1.2,60.0007800101518,
0,0,0,0,,,,,,,,,0,0,0,0,25,0,25,0,,,,,,,,,,,,,,,,,,,,,,,,,,,,,,,,,nback_1_blokk1,D,['u'],[0.15041840000003504],u,0.15041840000003504,false alarm,0,,,,,,,,,,,,,144.44920160000004,None,['u'],144.44920160000004,None,0.01139903000000686,0.31139903000000685,[0.15041840000003504],,,,,,,,,,,,,alexproba_nobuttn,24,férfi,jobb,2021_Mar_10_1224,nback_task_v1,2021.1.2,60.0007800101518,
0,0,0,0,,,,,,,,,0,0,0,0,26,0,26,0,,,,,,,,,,,,,,,,,,,,,,,,,,,,,,,,,nback_1_blokk1,Y,['u'],[0.002980199999967681],u,0.002980199999967681,false alarm,0,,,,,,,,,,,,,144.93253150000004,None,['u'],144.93253150000004,None,0.01097383000001173,0.3109738300000117,[0.002980199999967681],,,,,,,,,,,,,alexproba_nobuttn,24,férfi,jobb,2021_Mar_10_1224,nback_task_v1,2021.1.2,60.0007800101518,
0,0,0,0,,,,,,,,,0,0,0,0,27,0,27,0,,,,,,,,,,,,,,,,,,,,,,,,,,,,,,,,,nback_1_blokk1,F,['u'],[0.02965119999998933],u,0.02965119999998933,false alarm,0,,,,,,,,,,,,,145.2658316,None,['u'],145.2658316,None,0.011228229999971973,0.31122822999997196,[0.02965119999998933],,,,,,,,,,,,,alexproba_nobuttn,24,férfi,jobb,2021_Mar_10_1224,nback_task_v1,2021.1.2,60.0007800101518,
0,0,0,0,,,,,,,,,0,0,0,0,28,0,28,0,,,,,,,,,,,,,,,,,,,,,,,,,,,,,,,,,nback_1_blokk1,F,['u'],[0.006981399999972382],u,0.006981399999972382,hit,1,,,,,,,,,,,,,145.63255070000002,None,['u'],145.63255070000002,None,0.011642229999949905,0.3116422299999499,[0.006981399999972382],,,,,,,,,,,,,alexproba_nobuttn,24,férfi,jobb,2021_Mar_10_1224,nback_task_v1,2021.1.2,60.0007800101518,
0,0,0,0,,,,,,,,,0,0,0,0,29,0,29,0,,,,,,,,,,,,,,,,,,,,,,,,,,,,,,,,,nback_1_blokk1,H,['u'],[0.1690996000000382],u,0.1690996000000382,false alarm,0,,,,,,,,,,,,,145.98245350000002,None,['u'],145.98245350000002,None,0.01077072999999018,0.31077072999999017,[0.1690996000000382],,,,,,,,,,,,,alexproba_nobuttn,24,férfi,jobb,2021_Mar_10_1224,nback_task_v1,2021.1.2,60.0007800101518,
0,0,0,0,,,,,,,,,0,0,0,0,30,0,30,0,,,,,,,,,,,,,,,,,,,,,,,,,,,,,,,,,nback_1_blokk1,S,['u'],[0.012209299999994982],u,0.012209299999994982,false alarm,0,,,,,,,,,,,,,146.49919800000004,None,['u'],146.49919800000004,None,0.01164432999996734,0.31164432999996733,[0.012209299999994982],,,,,,,,,,,,,alexproba_nobuttn,24,férfi,jobb,2021_Mar_10_1224,nback_task_v1,2021.1.2,60.0007800101518,
0,0,0,0,,,,,,,,,0,0,0,0,31,0,31,0,,,,,,,,,,,,,,,,,,,,,,,,,,,,,,,,,nback_1_blokk1,S,['u'],[0.02225060000000667],u,0.02225060000000667,hit,1,,,,,,,,,,,,,146.8492296,None,['u'],146.8492296,None,0.01161352999997689,0.3116135299999769,[0.02225060000000667],,,,,,,,,,,,,alexproba_nobuttn,24,férfi,jobb,2021_Mar_10_1224,nback_task_v1,2021.1.2,60.0007800101518,
0,0,0,0,,,,,,,,,0,0,0,0,32,0,32,0,,,,,,,,,,,,,,,,,,,,,,,,,,,,,,,,,nback_1_blokk1,Q,['u'],[0.015687000000013995],u,0.015687000000013995,false alarm,0,,,,,,,,,,,,,147.21587060000002,None,['u'],147.21587060000002,None,0.010933929999964676,0.31093392999996466,[0.015687000000013995],,,,,,,,,,,,,alexproba_nobuttn,24,férfi,jobb,2021_Mar_10_1224,nback_task_v1,2021.1.2,60.0007800101518,
0,0,0,0,,,,,,,,,0,0,0,0,33,0,33,0,,,,,,,,,,,,,,,,,,,,,,,,,,,,,,,,,nback_1_blokk1,P,['u'],[0.03360520000001088],u,0.03360520000001088,false alarm,0,,,,,,,,,,,,,147.56593270000002,None,['u'],147.56593270000002,None,0.011073730000020987,0.311073730000021,[0.03360520000001088],,,,,,,,,,,,,alexproba_nobuttn,24,férfi,jobb,2021_Mar_10_1224,nback_task_v1,2021.1.2,60.0007800101518,
0,0,0,0,,,,,,,,,0,0,0,0,34,0,34,0,,,,,,,,,,,,,,,,,,,,,,,,,,,,,,,,,nback_1_blokk1,J,['u'],[0.05896439999997938],u,0.05896439999997938,false alarm,0,,,,,,,,,,,,,147.9325703,None,['u'],147.9325703,None,0.01095122999998921,0.3109512299999892,[0.05896439999997938],,,,,,,,,,,,,alexproba_nobuttn,24,férfi,jobb,2021_Mar_10_1224,nback_task_v1,2021.1.2,60.0007800101518,
0,0,0,0,,,,,,,,,0,0,0,0,35,0,35,0,,,,,,,,,,,,,,,,,,,,,,,,,,,,,,,,,nback_1_blokk1,J,['u'],[0.051022699999975885],u,0.051022699999975885,hit,1,,,,,,,,,,,,,148.33250650000002,None,['u'],148.33250650000002,None,0.011513530000001992,0.311513530000002,[0.051022699999975885],,,,,,,,,,,,,alexproba_nobuttn,24,férfi,jobb,2021_Mar_10_1224,nback_task_v1,2021.1.2,60.0007800101518,
0,0,0,0,,,,,,,,,0,0,0,0,36,0,36,0,,,,,,,,,,,,,,,,,,,,,,,,,,,,,,,,,nback_1_blokk1,S,['u'],[0.16363440000003493],u,0.16363440000003493,false alarm,0,,,,,,,,,,,,,148.71591520000004,None,['u'],148.71591520000004,None,0.011602830000015274,0.31160283000001526,[0.16363440000003493],,,,,,,,,,,,,alexproba_nobuttn,24,férfi,jobb,2021_Mar_10_1224,nback_task_v1,2021.1.2,60.0007800101518,
0,0,0,0,,,,,,,,,0,0,0,0,37,0,37,0,,,,,,,,,,,,,,,,,,,,,,,,,,,,,,,,,nback_1_blokk1,L,['u'],[0.06367440000002489],u,0.06367440000002489,false alarm,0,,,,,,,,,,,,,149.215845,None,['u'],149.215845,None,0.011010629999987032,0.311010629999987,[0.06367440000002489],,,,,,,,,,,,,alexproba_nobuttn,24,férfi,jobb,2021_Mar_10_1224,nback_task_v1,2021.1.2,60.0007800101518,
0,0,0,0,,,,,,,,,0,0,0,0,38,0,38,0,,,,,,,,,,,,,,,,,,,,,,,,,,,,,,,,,nback_1_blokk1,Q,['u'],[0.015478700000016943],u,0.015478700000016943,false alarm,0,,,,,,,,,,,,,149.61598230000004,None,['u'],149.61598230000004,None,0.010927429999981086,0.3109274299999811,[0.015478700000016943],,,,,,,,,,,,,alexproba_nobuttn,24,férfi,jobb,2021_Mar_10_1224,nback_task_v1,2021.1.2,60.0007800101518,
0,0,0,0,,,,,,,,,0,0,0,0,39,0,39,0,,,,,,,,,,,,,,,,,,,,,,,,,,,,,,,,,nback_1_blokk1,S,['u'],[0.04154729999999063],u,0.04154729999999063,false alarm,0,,,,,,,,,,,,,149.96598420000004,None,['u'],149.96598420000004,None,0.011699229999976524,0.3116992299999765,[0.04154729999999063],,,,,,,,,,,,,alexproba_nobuttn,24,férfi,jobb,2021_Mar_10_1224,nback_task_v1,2021.1.2,60.0007800101518,
0,0,0,0,,,,,,,,,0,0,0,0,40,0,40,0,,,,,,,,,,,,,,,,,,,,,,,,,,,,,,,,,nback_1_blokk1,P,['u'],[0.03425190000001521],u,0.03425190000001521,false alarm,0,,,,,,,,,,,,,150.34932560000004,None,['u'],150.34932560000004,None,0.011566630000004352,0.31156663000000434,[0.03425190000001521],,,,,,,,,,,,,alexproba_nobuttn,24,férfi,jobb,2021_Mar_10_1224,nback_task_v1,2021.1.2,60.0007800101518,
0,0,0,0,,,,,,,,,0,0,0,0,41,0,41,0,,,,,,,,,,,,,,,,,,,,,,,,,,,,,,,,,nback_1_blokk1,H,['u'],[0.011600200000032146],u,0.011600200000032146,false alarm,0,,,,,,,,,,,,,150.71592580000004,None,['u'],150.71592580000004,None,0.011455430000012257,0.31145543000001225,[0.011600200000032146],,,,,,,,,,,,,alexproba_nobuttn,24,férfi,jobb,2021_Mar_10_1224,nback_task_v1,2021.1.2,60.0007800101518,
0,0,0,0,,,,,,,,,0,0,0,0,42,0,42,0,,,,,,,,,,,,,,,,,,,,,,,,,,,,,,,,,nback_1_blokk1,H,['u'],[0.005578200000002198],u,0.005578200000002198,hit,1,,,,,,,,,,,,,151.06601790000002,None,['u'],151.06601790000002,None,0.011298329999988255,0.31129832999998824,[0.005578200000002198],,,,,,,,,,,,,alexproba_nobuttn,24,férfi,jobb,2021_Mar_10_1224,nback_task_v1,2021.1.2,60.0007800101518,
0,0,0,0,,,,,,,,,0,0,0,0,43,0,43,0,,,,,,,,,,,,,,,,,,,,,,,,,,,,,,,,,nback_1_blokk1,D,['u'],[0.007469000000014603],u,0.007469000000014603,false alarm,0,,,,,,,,,,,,,151.41605020000003,None,['u'],151.41605020000003,None,0.011358729999983552,0.31135872999998354,[0.007469000000014603],,,,,,,,,,,,,alexproba_nobuttn,24,férfi,jobb,2021_Mar_10_1224,nback_task_v1,2021.1.2,60.0007800101518,
0,0,0,0,,,,,,,,,0,0,0,0,44,0,44,0,,,,,,,,,,,,,,,,,,,,,,,,,,,,,,,,,nback_1_blokk1,D,['u'],[0.017549199999962184],u,0.017549199999962184,hit,1,,,,,,,,,,,,,151.766005,None,['u'],151.766005,None,0.010891529999980776,0.31089152999998076,[0.017549199999962184],,,,,,,,,,,,,alexproba_nobuttn,24,férfi,jobb,2021_Mar_10_1224,nback_task_v1,2021.1.2,60.0007800101518,
0,0,0,0,,,,,,,,,0,0,0,0,45,0,45,0,,,,,,,,,,,,,,,,,,,,,,,,,,,,,,,,,nback_1_blokk1,J,['u'],[0.17146760000002814],u,0.17146760000002814,false alarm,0,,,,,,,,,,,,,152.11602280000005,None,['u'],152.11602280000005,None,0.011078029999964656,0.31107802999996464,[0.17146760000002814],,,,,,,,,,,,,alexproba_nobuttn,24,férfi,jobb,2021_Mar_10_1224,nback_task_v1,2021.1.2,60.0007800101518,
0,0,0,0,,,,,,,,,0,0,0,0,46,0,46,0,,,,,,,,,,,,,,,,,,,,,,,,,,,,,,,,,nback_1_blokk1,H,['u'],[0.16688279999999622],u,0.16688279999999622,false alarm,0,,,,,,,,,,,,,152.6327205,None,['u'],152.6327205,None,0.01172673000002078,0.31172673000002077,[0.16688279999999622],,,,,,,,,,,,,alexproba_nobuttn,24,férfi,jobb,2021_Mar_10_1224,nback_task_v1,2021.1.2,60.0007800101518,
0,0,0,0,,,,,,,,,0,0,0,0,47,0,47,0,,,,,,,,,,,,,,,,,,,,,,,,,,,,,,,,,nback_1_blokk1,H,['u'],[0.03501360000001341],u,0.03501360000001341,hit,1,,,,,,,,,,,,,153.1326697,None,['u'],153.1326697,None,0.010913730000027044,0.31091373000002703,[0.03501360000001341],,,,,,,,,,,,,alexproba_nobuttn,24,férfi,jobb,2021_Mar_10_1224,nback_task_v1,2021.1.2,60.0007800101518,
0,0,0,0,,,,,,,,,0,0,0,0,,,,,,,,,,,,,,,,,,,,,,,,,,,,,,,,,,,,,,,,,,,,,,,,,,,,,,,,,,,,,,,,,153.1993941,None,['space'],[0.6480940999999802],153.1993941,None,,,,,,,alexproba_nobuttn,24,férfi,jobb,2021_Mar_10_1224,nback_task_v1,2021.1.2,60.0007800101518,
0,0,0,0,,,,,,,,,1,0,1,0,0,0,0,0,,,,,,,,,,,,,,,,,,,,,,,,,,,,,,,,,nback_1_blokk2,L,"['space', 'u']","[0.6653719000000251, 1.0094323999999801]",u,1.0094323999999801,false alarm,0,,,,,,,,,,,,,154.1660779,None,"['space', 'u']",154.1660779,None,0.010965029999965736,0.3109650299999657,"[0.6653719000000251, 1.0094323999999801]",,,,,,,,,,,,,alexproba_nobuttn,24,férfi,jobb,2021_Mar_10_1224,nback_task_v1,2021.1.2,60.0007800101518,
0,0,0,0,,,,,,,,,1,0,1,0,1,0,1,0,,,,,,,,,,,,,,,,,,,,,,,,,,,,,,,,,nback_1_blokk2,Y,['u'],[0.15493530000003375],u,0.15493530000003375,false alarm,0,,,,,,,,,,,,,155.51654030000003,None,['u'],155.51654030000003,None,0.01081723000004331,0.3108172300000433,[0.15493530000003375],,,,,,,,,,,,,alexproba_nobuttn,24,férfi,jobb,2021_Mar_10_1224,nback_task_v1,2021.1.2,60.0007800101518,
0,0,0,0,,,,,,,,,1,0,1,0,2,0,2,0,,,,,,,,,,,,,,,,,,,,,,,,,,,,,,,,,nback_1_blokk2,Y,['u'],[0.16742599999997765],u,0.16742599999997765,hit,1,,,,,,,,,,,,,156.0161539,None,['u'],156.0161539,None,0.011178529999995135,0.3111785299999951,[0.16742599999997765],,,,,,,,,,,,,alexproba_nobuttn,24,férfi,jobb,2021_Mar_10_1224,nback_task_v1,2021.1.2,60.0007800101518,
0,0,0,0,,,,,,,,,1,0,1,0,3,0,3,0,,,,,,,,,,,,,,,,,,,,,,,,,,,,,,,,,nback_1_blokk2,L,['u'],[0.17146320000000514],u,0.17146320000000514,false alarm,0,,,,,,,,,,,,,156.5161701,None,['u'],156.5161701,None,0.011516529999994418,0.3115165299999944,[0.17146320000000514],,,,,,,,,,,,,alexproba_nobuttn,24,férfi,jobb,2021_Mar_10_1224,nback_task_v1,2021.1.2,60.0007800101518,
0,0,0,0,,,,,,,,,1,0,1,0,4,0,4,0,,,,,,,,,,,,,,,,,,,,,,,,,,,,,,,,,nback_1_blokk2,S,['u'],[0.022564999999985957],u,0.022564999999985957,false alarm,0,,,,,,,,,,,,,157.03282610000002,None,['u'],157.03282610000002,None,0.011018929999920601,0.3110189299999206,[0.022564999999985957],,,,,,,,,,,,,alexproba_nobuttn,24,férfi,jobb,2021_Mar_10_1224,nback_task_v1,2021.1.2,60.0007800101518,
0,0,0,0,,,,,,,,,1,0,1,0,5,0,5,0,,,,,,,,,,,,,,,,,,,,,,,,,,,,,,,,,nback_1_blokk2,Y,['u'],[0.17599269999999478],u,0.17599269999999478,false alarm,0,,,,,,,,,,,,,157.39955640000005,None,['u'],157.39955640000005,None,0.011432130000002871,0.31143213000000286,[0.17599269999999478],,,,,,,,,,,,,alexproba_nobuttn,24,férfi,jobb,2021_Mar_10_1224,nback_task_v1,2021.1.2,60.0007800101518,
0,0,0,0,,,,,,,,,1,0,1,0,6,0,6,0,,,,,,,,,,,,,,,,,,,,,,,,,,,,,,,,,nback_1_blokk2,J,['u'],[0.04351619999999912],u,0.04351619999999912,false alarm,0,,,,,,,,,,,,,157.9161603,None,['u'],157.9161603,None,0.011412629999938417,0.3114126299999384,[0.04351619999999912],,,,,,,,,,,,,alexproba_nobuttn,24,férfi,jobb,2021_Mar_10_1224,nback_task_v1,2021.1.2,60.0007800101518,
0,0,0,0,,,,,,,,,1,0,1,0,7,0,7,0,,,,,,,,,,,,,,,,,,,,,,,,,,,,,,,,,nback_1_blokk2,J,['u'],[0.02825009999997974],u,0.02825009999997974,hit,1,,,,,,,,,,,,,158.29954320000002,None,['u'],158.29954320000002,None,0.011377229999993688,0.3113772299999937,[0.02825009999997974],,,,,,,,,,,,,alexproba_nobuttn,24,férfi,jobb,2021_Mar_10_1224,nback_task_v1,2021.1.2,60.0007800101518,
0,0,0,0,,,,,,,,,1,0,1,0,8,0,8,0,,,,,,,,,,,,,,,,,,,,,,,,,,,,,,,,,nback_1_blokk2,F,['u'],[0.05334499999997888],u,0.05334499999997888,false alarm,0,,,,,,,,,,,,,158.6661952,None,['u'],158.6661952,None,0.011157029999992574,0.31115702999999256,[0.05334499999997888],,,,,,,,,,,,,alexproba_nobuttn,24,férfi,jobb,2021_Mar_10_1224,nback_task_v1,2021.1.2,60.0007800101518,
0,0,0,0,,,,,,,,,1,0,1,0,9,0,9,0,,,,,,,,,,,,,,,,,,,,,,,,,,,,,,,,,nback_1_blokk2,Z,['u'],[0.029252700000029108],u,0.029252700000029108,false alarm,0,,,,,,,,,,,,,159.0662557,None,['u'],159.0662557,None,0.01132923000000119,0.3113292300000012,[0.029252700000029108],,,,,,,,,,,,,alexproba_nobuttn,24,férfi,jobb,2021_Mar_10_1224,nback_task_v1,2021.1.2,60.0007800101518,
0,0,0,0,,,,,,,,,1,0,1,0,10,0,10,0,,,,,,,,,,,,,,,,,,,,,,,,,,,,,,,,,nback_1_blokk2,D,['u'],[0.0467054999999732],u,0.0467054999999732,false alarm,0,,,,,,,,,,,,,159.432862,None,['u'],159.432862,None,0.011090530000046783,0.31109053000004677,[0.0467054999999732],,,,,,,,,,,,,alexproba_nobuttn,24,férfi,jobb,2021_Mar_10_1224,nback_task_v1,2021.1.2,60.0007800101518,
0,0,0,0,,,,,,,,,1,0,1,0,11,0,11,0,,,,,,,,,,,,,,,,,,,,,,,,,,,,,,,,,nback_1_blokk2,Y,None,[],no_resp,None,correct rejection,1,,,,,,,,,,,,,159.81622180000005,161.61619280000002,None,159.81622180000005,None,0.011541630000010628,0.3115416300000106,,,,,,,,,,,,,,alexproba_nobuttn,24,férfi,jobb,2021_Mar_10_1224,nback_task_v1,2021.1.2,60.0007800101518,
0,0,0,0,,,,,,,,,1,0,1,0,12,0,12,0,,,,,,,,,,,,,,,,,,,,,,,,,,,,,,,,,nback_1_blokk2,Y,['u'],[2.1191981000000055],u,2.1191981000000055,hit,1,,,,,,,,,,,,,163.41630660000004,165.2163911,['u'],163.41630660000004,163.11627330000005,0.013315830000010465,0.31331583000001045,[2.1191981000000055],,,,,,,,,,,,,alexproba_nobuttn,24,férfi,jobb,2021_Mar_10_1224,nback_task_v1,2021.1.2,60.0007800101518,
0,0,0,0,,,,,,,,,1,0,1,0,13,0,13,0,,,,,,,,,,,,,,,,,,,,,,,,,,,,,,,,,nback_1_blokk2,L,"['space', 'u']","[0.15649659999996857, 0.25249619999999595]",u,0.25249619999999595,false alarm,0,,,,,,,,,,,,,165.88304550000004,None,"['space', 'u']",165.88304550000004,None,0.01091503000003513,0.3109150300000351,"[0.15649659999996857, 0.25249619999999595]",,,,,,,,,,,,,alexproba_nobuttn,24,férfi,jobb,2021_Mar_10_1224,nback_task_v1,2021.1.2,60.0007800101518,
0,0,0,0,,,,,,,,,1,0,1,0,14,0,14,0,,,,,,,,,,,,,,,,,,,,,,,,,,,,,,,,,nback_1_blokk2,Q,['u'],[0.02059350000001814],u,0.02059350000001814,false alarm,0,,,,,,,,,,,,,166.48299960000003,None,['u'],166.48299960000003,None,0.01160213000002841,0.3116021300000284,[0.02059350000001814],,,,,,,,,,,,,alexproba_nobuttn,24,férfi,jobb,2021_Mar_10_1224,nback_task_v1,2021.1.2,60.0007800101518,
0,0,0,0,,,,,,,,,1,0,1,0,15,0,15,0,,,,,,,,,,,,,,,,,,,,,,,,,,,,,,,,,nback_1_blokk2,P,['u'],[0.16581250000001546],u,0.16581250000001546,false alarm,0,,,,,,,,,,,,,166.8497062,None,['u'],166.8497062,None,0.011253430000010667,0.31125343000001066,[0.16581250000001546],,,,,,,,,,,,,alexproba_nobuttn,24,férfi,jobb,2021_Mar_10_1224,nback_task_v1,2021.1.2,60.0007800101518,
0,0,0,0,,,,,,,,,1,0,1,0,16,0,16,0,,,,,,,,,,,,,,,,,,,,,,,,,,,,,,,,,nback_1_blokk2,L,['u'],[0.1777925999999752],u,0.1777925999999752,false alarm,0,,,,,,,,,,,,,167.34974780000005,None,['u'],167.34974780000005,None,0.01114282999998295,0.31114282999998294,[0.1777925999999752],,,,,,,,,,,,,alexproba_nobuttn,24,férfi,jobb,2021_Mar_10_1224,nback_task_v1,2021.1.2,60.0007800101518,
0,0,0,0,,,,,,,,,1,0,1,0,17,0,17,0,,,,,,,,,,,,,,,,,,,,,,,,,,,,,,,,,nback_1_blokk2,F,['u'],[0.021018299999980172],u,0.021018299999980172,false alarm,0,,,,,,,,,,,,,167.86646970000004,None,['u'],167.86646970000004,None,0.01151713000001564,0.31151713000001563,[0.021018299999980172],,,,,,,,,,,,,alexproba_nobuttn,24,férfi,jobb,2021_Mar_10_1224,nback_task_v1,2021.1.2,60.0007800101518,
0,0,0,0,,,,,,,,,1,0,1,0,18,0,18,0,,,,,,,,,,,,,,,,,,,,,,,,,,,,,,,,,nback_1_blokk2,P,['u'],[0.03047639999999774],u,0.03047639999999774,false alarm,0,,,,,,,,,,,,,168.23309,None,['u'],168.23309,None,0.011155830000063816,0.3111558300000638,[0.03047639999999774],,,,,,,,,,,,,alexproba_nobuttn,24,férfi,jobb,2021_Mar_10_1224,nback_task_v1,2021.1.2,60.0007800101518,
0,0,0,0,,,,,,,,,1,0,1,0,19,0,19,0,,,,,,,,,,,,,,,,,,,,,,,,,,,,,,,,,nback_1_blokk2,P,['u'],[0.023901599999987866],u,0.023901599999987866,hit,1,,,,,,,,,,,,,168.59970460000005,None,['u'],168.59970460000005,None,0.011686829999973725,0.3116868299999737,[0.023901599999987866],,,,,,,,,,,,,alexproba_nobuttn,24,férfi,jobb,2021_Mar_10_1224,nback_task_v1,2021.1.2,60.0007800101518,
0,0,0,0,,,,,,,,,1,0,1,0,20,0,20,0,,,,,,,,,,,,,,,,,,,,,,,,,,,,,,,,,nback_1_blokk2,L,['u'],[0.1769518999999491],u,0.1769518999999491,false alarm,0,,,,,,,,,,,,,168.96647000000002,None,['u'],168.96647000000002,None,0.011119729999961692,0.3111197299999617,[0.1769518999999491],,,,,,,,,,,,,alexproba_nobuttn,24,férfi,jobb,2021_Mar_10_1224,nback_task_v1,2021.1.2,60.0007800101518,
0,0,0,0,,,,,,,,,1,0,1,0,21,0,21,0,,,,,,,,,,,,,,,,,,,,,,,,,,,,,,,,,nback_1_blokk2,H,['u'],[0.03647060000002966],u,0.03647060000002966,false alarm,0,,,,,,,,,,,,,169.483136,None,['u'],169.483136,None,0.011073930000065957,0.31107393000006595,[0.03647060000002966],,,,,,,,,,,,,alexproba_nobuttn,24,férfi,jobb,2021_Mar_10_1224,nback_task_v1,2021.1.2,60.0007800101518,
0,0,0,0,,,,,,,,,1,0,1,0,22,0,22,0,,,,,,,,,,,,,,,,,,,,,,,,,,,,,,,,,nback_1_blokk2,S,['u'],[0.02113170000006903],u,0.02113170000006903,false alarm,0,,,,,,,,,,,,,169.8664706,None,['u'],169.8664706,None,0.011613230000079966,0.31161323000007995,[0.02113170000006903],,,,,,,,,,,,,alexproba_nobuttn,24,férfi,jobb,2021_Mar_10_1224,nback_task_v1,2021.1.2,60.0007800101518,
0,0,0,0,,,,,,,,,1,0,1,0,23,0,23,0,,,,,,,,,,,,,,,,,,,,,,,,,,,,,,,,,nback_1_blokk2,D,['u'],[0.030350600000019767],u,0.030350600000019767,false alarm,0,,,,,,,,,,,,,170.23313539999998,None,['u'],170.23313539999998,None,0.01121542999999292,0.3112154299999929,[0.030350600000019767],,,,,,,,,,,,,alexproba_nobuttn,24,férfi,jobb,2021_Mar_10_1224,nback_task_v1,2021.1.2,60.0007800101518,
0,0,0,0,,,,,,,,,1,0,1,0,24,0,24,0,,,,,,,,,,,,,,,,,,,,,,,,,,,,,,,,,nback_1_blokk2,D,['u'],[0.015701400000011745],u,0.015701400000011745,hit,1,,,,,,,,,,,,,170.599852,None,['u'],170.599852,None,0.01087543000005553,0.3108754300000555,[0.015701400000011745],,,,,,,,,,,,,alexproba_nobuttn,24,férfi,jobb,2021_Mar_10_1224,nback_task_v1,2021.1.2,60.0007800101518,
0,0,0,0,,,,,,,,,1,0,1,0,25,0,25,0,,,,,,,,,,,,,,,,,,,,,,,,,,,,,,,,,nback_1_blokk2,H,['u'],[0.009748500000000604],u,0.009748500000000604,false alarm,0,,,,,,,,,,,,,170.94980760000004,None,['u'],170.94980760000004,None,0.011868530000015198,0.3118685300000152,[0.009748500000000604],,,,,,,,,,,,,alexproba_nobuttn,24,férfi,jobb,2021_Mar_10_1224,nback_task_v1,2021.1.2,60.0007800101518,
0,0,0,0,,,,,,,,,1,0,1,0,26,0,26,0,,,,,,,,,,,,,,,,,,,,,,,,,,,,,,,,,nback_1_blokk2,L,['u'],[0.02772560000005342],u,0.02772560000005342,false alarm,0,,,,,,,,,,,,,171.2998455,None,['u'],171.2998455,None,0.01075543000001744,0.31075543000001743,[0.02772560000005342],,,,,,,,,,,,,alexproba_nobuttn,24,férfi,jobb,2021_Mar_10_1224,nback_task_v1,2021.1.2,60.0007800101518,
0,0,0,0,,,,,,,,,1,0,1,0,27,0,27,0,,,,,,,,,,,,,,,,,,,,,,,,,,,,,,,,,nback_1_blokk2,Y,['u'],[0.029026199999975688],u,0.029026199999975688,false alarm,0,,,,,,,,,,,,,171.66653380000008,None,['u'],171.66653380000008,None,0.011368030000085128,0.3113680300000851,[0.029026199999975688],,,,,,,,,,,,,alexproba_nobuttn,24,férfi,jobb,2021_Mar_10_1224,nback_task_v1,2021.1.2,60.0007800101518,
0,0,0,0,,,,,,,,,1,0,1,0,28,0,28,0,,,,,,,,,,,,,,,,,,,,,,,,,,,,,,,,,nback_1_blokk2,Q,['u'],[0.030365900000106194],u,0.030365900000106194,false alarm,0,,,,,,,,,,,,,172.03314849999998,None,['u'],172.03314849999998,None,0.010793229999990217,0.3107932299999902,[0.030365900000106194],,,,,,,,,,,,,alexproba_nobuttn,24,férfi,jobb,2021_Mar_10_1224,nback_task_v1,2021.1.2,60.0007800101518,
0,0,0,0,,,,,,,,,1,0,1,0,29,0,29,0,,,,,,,,,,,,,,,,,,,,,,,,,,,,,,,,,nback_1_blokk2,F,['u'],[0.047597500000051696],u,0.047597500000051696,false alarm,0,,,,,,,,,,,,,172.39985059999998,None,['u'],172.39985059999998,None,0.011100729999952819,0.3111007299999528,[0.047597500000051696],,,,,,,,,,,,,alexproba_nobuttn,24,férfi,jobb,2021_Mar_10_1224,nback_task_v1,2021.1.2,60.0007800101518,
0,0,0,0,,,,,,,,,1,0,1,0,30,0,30,0,,,,,,,,,,,,,,,,,,,,,,,,,,,,,,,,,nback_1_blokk2,P,['u'],[0.04034680000006574],u,0.04034680000006574,false alarm,0,,,,,,,,,,,,,172.78322940000004,None,['u'],172.78322940000004,None,0.010603029999970204,0.3106030299999702,[0.04034680000006574],,,,,,,,,,,,,alexproba_nobuttn,24,férfi,jobb,2021_Mar_10_1224,nback_task_v1,2021.1.2,60.0007800101518,
0,0,0,0,,,,,,,,,1,0,1,0,31,0,31,0,,,,,,,,,,,,,,,,,,,,,,,,,,,,,,,,,nback_1_blokk2,H,['u'],[0.05697989999998754],u,0.05697989999998754,false alarm,0,,,,,,,,,,,,,173.1666108,None,['u'],173.1666108,None,0.011293730000033975,0.31129373000003396,[0.05697989999998754],,,,,,,,,,,,,alexproba_nobuttn,24,férfi,jobb,2021_Mar_10_1224,nback_task_v1,2021.1.2,60.0007800101518,
0,0,0,0,,,,,,,,,1,0,1,0,32,0,32,0,,,,,,,,,,,,,,,,,,,,,,,,,,,,,,,,,nback_1_blokk2,J,['u'],[0.0650037999999995],u,0.0650037999999995,false alarm,0,,,,,,,,,,,,,173.56659940000003,None,['u'],173.56659940000003,None,0.011575929999935397,0.3115759299999354,[0.0650037999999995],,,,,,,,,,,,,alexproba_nobuttn,24,férfi,jobb,2021_Mar_10_1224,nback_task_v1,2021.1.2,60.0007800101518,
0,0,0,0,,,,,,,,,1,0,1,0,33,0,33,0,,,,,,,,,,,,,,,,,,,,,,,,,,,,,,,,,nback_1_blokk2,L,['u'],[0.041027499999927386],u,0.041027499999927386,false alarm,0,,,,,,,,,,,,,173.96652870000008,None,['u'],173.96652870000008,None,0.011677829999939604,0.3116778299999396,[0.041027499999927386],,,,,,,,,,,,,alexproba_nobuttn,24,férfi,jobb,2021_Mar_10_1224,nback_task_v1,2021.1.2,60.0007800101518,
0,0,0,0,,,,,,,,,1,0,1,0,34,0,34,0,,,,,,,,,,,,,,,,,,,,,,,,,,,,,,,,,nback_1_blokk2,Z,['u'],[0.03387400000008256],u,0.03387400000008256,false alarm,0,,,,,,,,,,,,,174.34985480000006,None,['u'],174.34985480000006,None,0.011010229999897092,0.3110102299998971,[0.03387400000008256],,,,,,,,,,,,,alexproba_nobuttn,24,férfi,jobb,2021_Mar_10_1224,nback_task_v1,2021.1.2,60.0007800101518,
0,0,0,0,,,,,,,,,1,0,1,0,35,0,35,0,,,,,,,,,,,,,,,,,,,,,,,,,,,,,,,,,nback_1_blokk2,F,['u'],[0.05100700000002689],u,0.05100700000002689,false alarm,0,,,,,,,,,,,,,174.7165809,None,['u'],174.7165809,None,0.011145129999931669,0.31114512999993166,[0.05100700000002689],,,,,,,,,,,,,alexproba_nobuttn,24,férfi,jobb,2021_Mar_10_1224,nback_task_v1,2021.1.2,60.0007800101518,
0,0,0,0,,,,,,,,,1,0,1,0,36,0,36,0,,,,,,,,,,,,,,,,,,,,,,,,,,,,,,,,,nback_1_blokk2,F,['u'],[0.06766520000007858],u,0.06766520000007858,hit,1,,,,,,,,,,,,,175.09990840000006,None,['u'],175.09990840000006,None,0.011575829999969756,0.31157582999996974,[0.06766520000007858],,,,,,,,,,,,,alexproba_nobuttn,24,férfi,jobb,2021_Mar_10_1224,nback_task_v1,2021.1.2,60.0007800101518,
0,0,0,0,,,,,,,,,1,0,1,0,37,0,37,0,,,,,,,,,,,,,,,,,,,,,,,,,,,,,,,,,nback_1_blokk2,D,['u'],[0.06762009999999918],u,0.06762009999999918,false alarm,0,,,,,,,,,,,,,175.49994980000002,None,['u'],175.49994980000002,None,0.010879429999931745,0.31087942999993173,[0.06762009999999918],,,,,,,,,,,,,alexproba_nobuttn,24,férfi,jobb,2021_Mar_10_1224,nback_task_v1,2021.1.2,60.0007800101518,
0,0,0,0,,,,,,,,,1,0,1,0,38,0,38,0,,,,,,,,,,,,,,,,,,,,,,,,,,,,,,,,,nback_1_blokk2,D,['u'],[0.04362700000001496],u,0.04362700000001496,hit,1,,,,,,,,,,,,,175.89993170000008,None,['u'],175.89993170000008,None,0.011521329999936825,0.3115213299999368,[0.04362700000001496],,,,,,,,,,,,,alexproba_nobuttn,24,férfi,jobb,2021_Mar_10_1224,nback_task_v1,2021.1.2,60.0007800101518,
0,0,0,0,,,,,,,,,1,0,1,0,39,0,39,0,,,,,,,,,,,,,,,,,,,,,,,,,,,,,,,,,nback_1_blokk2,L,['u'],[0.06838019999997869],u,0.06838019999997869,false alarm,0,,,,,,,,,,,,,176.28330380000006,None,['u'],176.28330380000006,None,0.011747729999910916,0.3117477299999109,[0.06838019999997869],,,,,,,,,,,,,alexproba_nobuttn,24,férfi,jobb,2021_Mar_10_1224,nback_task_v1,2021.1.2,60.0007800101518,
0,0,0,0,,,,,,,,,1,0,1,0,40,0,40,0,,,,,,,,,,,,,,,,,,,,,,,,,,,,,,,,,nback_1_blokk2,J,['u'],[0.036298199999919234],u,0.036298199999919234,false alarm,0,,,,,,,,,,,,,176.68328160000004,None,['u'],176.68328160000004,None,0.011688829999911832,0.3116888299999118,[0.036298199999919234],,,,,,,,,,,,,alexproba_nobuttn,24,férfi,jobb,2021_Mar_10_1224,nback_task_v1,2021.1.2,60.0007800101518,
0,0,0,0,,,,,,,,,1,0,1,0,41,0,41,0,,,,,,,,,,,,,,,,,,,,,,,,,,,,,,,,,nback_1_blokk2,Q,['u'],[0.044876799999997274],u,0.044876799999997274,false alarm,0,,,,,,,,,,,,,177.06666130000002,None,['u'],177.06666130000002,None,0.01126413000008597,0.31126413000008596,[0.044876799999997274],,,,,,,,,,,,,alexproba_nobuttn,24,férfi,jobb,2021_Mar_10_1224,nback_task_v1,2021.1.2,60.0007800101518,
0,0,0,0,,,,,,,,,1,0,1,0,42,0,42,0,,,,,,,,,,,,,,,,,,,,,,,,,,,,,,,,,nback_1_blokk2,Q,['u'],[0.06146790000002511],u,0.06146790000002511,hit,1,,,,,,,,,,,,,177.44997840000002,None,['u'],177.44997840000002,None,0.011391030000140745,0.31139103000014073,[0.06146790000002511],,,,,,,,,,,,,alexproba_nobuttn,24,férfi,jobb,2021_Mar_10_1224,nback_task_v1,2021.1.2,60.0007800101518,
0,0,0,0,,,,,,,,,1,0,1,0,43,0,43,0,,,,,,,,,,,,,,,,,,,,,,,,,,,,,,,,,nback_1_blokk2,H,['u'],[0.07750199999998131],u,0.07750199999998131,false alarm,0,,,,,,,,,,,,,177.84999820000002,None,['u'],177.84999820000002,None,0.01066052999999556,0.31066052999999555,[0.07750199999998131],,,,,,,,,,,,,alexproba_nobuttn,24,férfi,jobb,2021_Mar_10_1224,nback_task_v1,2021.1.2,60.0007800101518,
0,0,0,0,,,,,,,,,1,0,1,0,44,0,44,0,,,,,,,,,,,,,,,,,,,,,,,,,,,,,,,,,nback_1_blokk2,H,['u'],[0.04473269999994045],u,0.04473269999994045,hit,1,,,,,,,,,,,,,178.26668550000005,None,['u'],178.26668550000005,None,0.011500829999931739,0.3115008299999317,[0.04473269999994045],,,,,,,,,,,,,alexproba_nobuttn,24,férfi,jobb,2021_Mar_10_1224,nback_task_v1,2021.1.2,60.0007800101518,
0,0,0,0,,,,,,,,,1,0,1,0,45,0,45,0,,,,,,,,,,,,,,,,,,,,,,,,,,,,,,,,,nback_1_blokk2,F,['u'],[0.03760340000008],u,0.03760340000008,false alarm,0,,,,,,,,,,,,,178.64998600000007,None,['u'],178.64998600000007,None,0.010922629999981837,0.3109226299999818,[0.03760340000008],,,,,,,,,,,,,alexproba_nobuttn,24,férfi,jobb,2021_Mar_10_1224,nback_task_v1,2021.1.2,60.0007800101518,
0,0,0,0,,,,,,,,,1,0,1,0,46,0,46,0,,,,,,,,,,,,,,,,,,,,,,,,,,,,,,,,,nback_1_blokk2,F,['u'],[0.030290299999933268],u,0.030290299999933268,hit,1,,,,,,,,,,,,,179.03326410000005,None,['u'],179.03326410000005,None,0.010684930000024906,0.3106849300000249,[0.030290299999933268],,,,,,,,,,,,,alexproba_nobuttn,24,férfi,jobb,2021_Mar_10_1224,nback_task_v1,2021.1.2,60.0007800101518,
0,0,0,0,,,,,,,,,1,0,1,0,47,0,47,0,,,,,,,,,,,,,,,,,,,,,,,,,,,,,,,,,nback_1_blokk2,S,['u'],[0.03152150000005349],u,0.03152150000005349,false alarm,0,,,,,,,,,,,,,179.40004590000007,None,['u'],179.40004590000007,None,0.011292629999957171,0.31129262999995716,[0.03152150000005349],,,,,,,,,,,,,alexproba_nobuttn,24,férfi,jobb,2021_Mar_10_1224,nback_task_v1,2021.1.2,60.0007800101518,
0,0,0,0,,,,,,,,,1,0,1,0,,,,,,,,,,,,,,,,,,,,,,,,,,,,,,,,,,,,,,,,,,,,,,,,,,,,,,,,,,,,,,,,,179.46670190000003,None,['space'],[0.7570652000000564],179.46670190000003,None,,,,,,,alexproba_nobuttn,24,férfi,jobb,2021_Mar_10_1224,nback_task_v1,2021.1.2,60.0007800101518,
0,0,0,0,,,,,,,,,,,,,,,,,,,,,,,,,,,,,,,,,,,,,,,,,,,,,,,,,,,,,,,,,,,,,,,,,,,,,,,,,,,,,,,,,,,180.26665150000002,None,['space'],[0.6849662999999282],180.26665150000002,None,alexproba_nobuttn,24,férfi,jobb,2021_Mar_10_1224,nback_task_v1,2021.1.2,60.0007800101518,
1,0,1,0,0,0,0,0,0,0,0,0,,,,,,,,,,,,,,,,,,,,,180.9833865,None,space,0.9682150999999521,180.9833865,None,182.00013860000007,None,['space'],[0.4233341999999993],182.00013860000007,None,182.75008989999998,184.5501453,None,,182.75008989999998,None,0.007839429999989989,0.30783942999999,nback_2_practice,H,None,[],no_resp,None,correct rejection,1,,,,,,,,,,,,,,,,,,,,,,,,,,,,,,,,,alexproba_nobuttn,24,férfi,jobb,2021_Mar_10_1224,nback_task_v1,2021.1.2,60.0007800101518,
1,0,1,0,0,0,0,0,1,0,1,0,,,,,,,,,,,,,,,,,,,,,,,,,,,,,,,,,186.35015200000004,188.15024350000004,None,,186.35015200000004,186.05022920000005,0.013944229999879099,0.3139442299998791,nback_2_practice,L,None,[],no_resp,None,correct rejection,1,,,,,,,,,,,,,,,,,,,,,,,,,,,,,,,,,alexproba_nobuttn,24,férfi,jobb,2021_Mar_10_1224,nback_task_v1,2021.1.2,60.0007800101518,
1,0,1,0,0,0,0,0,2,0,2,0,,,,,,,,,,,,,,,,,,,,,,,,,,,,,,,,,189.95030790000004,None,['u'],[0.5692176000000018],189.95030790000004,189.65032520000005,0.013801530000023376,0.31380153000002337,nback_2_practice,H,['u'],[0.5692176000000018],u,0.5692176000000018,hit,1,,,,,,,,,,,,,,,,,,,,,,,,,,,,,,,,,alexproba_nobuttn,24,férfi,jobb,2021_Mar_10_1224,nback_task_v1,2021.1.2,60.0007800101518,
1,0,1,0,0,0,0,0,3,0,3,0,,,,,,,,,,,,,,,,,,,,,,,,,,,,,,,,,190.86700000000002,192.6670661,None,,190.86700000000002,None,0.011534229999938361,0.31153422999993835,nback_2_practice,S,None,[],no_resp,None,correct rejection,1,,,,,,,,,,,,,,,,,,,,,,,,,,,,,,,,,alexproba_nobuttn,24,férfi,jobb,2021_Mar_10_1224,nback_task_v1,2021.1.2,60.0007800101518,
1,0,1,0,0,0,0,0,4,0,4,0,,,,,,,,,,,,,,,,,,,,,,,,,,,,,,,,,194.46710230000002,196.26713520000004,None,,194.46710230000002,194.16706260000007,0.013984629999981735,0.3139846299999817,nback_2_practice,J,None,[],no_resp,None,correct rejection,1,,,,,,,,,,,,,,,,,,,,,,,,,,,,,,,,,alexproba_nobuttn,24,férfi,jobb,2021_Mar_10_1224,nback_task_v1,2021.1.2,60.0007800101518,
1,0,1,0,0,0,0,0,5,0,5,0,,,,,,,,,,,,,,,,,,,,,,,,,,,,,,,,,198.06716799999998,199.86721740000002,None,,198.06716799999998,197.76717120000006,0.014332029999991391,0.3143320299999914,nback_2_practice,Y,None,[],no_resp,None,correct rejection,1,,,,,,,,,,,,,,,,,,,,,,,,,,,,,,,,,alexproba_nobuttn,24,férfi,jobb,2021_Mar_10_1224,nback_task_v1,2021.1.2,60.0007800101518,
1,0,1,0,0,0,0,0,6,0,6,0,,,,,,,,,,,,,,,,,,,,,,,,,,,,,,,,,201.66727200000008,203.467292,None,,201.66727200000008,201.36727020000006,0.013999330000160626,0.3139993300001606,nback_2_practice,P,None,[],no_resp,None,correct rejection,1,,,,,,,,,,,,,,,,,,,,,,,,,,,,,,,,,alexproba_nobuttn,24,férfi,jobb,2021_Mar_10_1224,nback_task_v1,2021.1.2,60.0007800101518,
1,0,1,0,0,0,0,0,7,0,7,0,,,,,,,,,,,,,,,,,,,,,,,,,,,,,,,,,205.26731239999998,None,['u'],[0.7802716999999575],205.26731239999998,204.96738320000003,0.013913129999991725,0.3139131299999917,nback_2_practice,H,['u'],[0.7802716999999575],u,0.7802716999999575,false alarm,0,,,,,,,,,,,,,,,,,,,,,,,,,,,,,,,,,alexproba_nobuttn,24,férfi,jobb,2021_Mar_10_1224,nback_task_v1,2021.1.2,60.0007800101518,
1,0,1,0,0,0,0,0,8,0,8,0,,,,,,,,,,,,,,,,,,,,,,,,,,,,,,,,,206.38398480000006,None,['u'],[0.4074789999999666],206.38398480000006,None,0.011285729999940486,0.3112857299999405,nback_2_practice,J,['u'],[0.4074789999999666],u,0.4074789999999666,false alarm,0,,,,,,,,,,,,,,,,,,,,,,,,,,,,,,,,,alexproba_nobuttn,24,férfi,jobb,2021_Mar_10_1224,nback_task_v1,2021.1.2,60.0007800101518,
1,0,1,0,0,0,0,0,9,0,9,0,,,,,,,,,,,,,,,,,,,,,,,,,,,,,,,,,207.13407869999998,None,['u'],[0.02537840000002234],207.13407869999998,None,0.01175032999992709,0.3117503299999271,nback_2_practice,F,['u'],[0.02537840000002234],u,0.02537840000002234,false alarm,0,,,,,,,,,,,,,,,,,,,,,,,,,,,,,,,,,alexproba_nobuttn,24,férfi,jobb,2021_Mar_10_1224,nback_task_v1,2021.1.2,60.0007800101518,
1,0,1,0,0,0,0,0,10,0,10,0,,,,,,,,,,,,,,,,,,,,,,,,,,,,,,,,,207.5007185,None,['u'],[0.15501509999990049],207.5007185,None,0.011598629999980403,0.3115986299999804,nback_2_practice,Z,['u'],[0.15501509999990049],u,0.15501509999990049,false alarm,0,,,,,,,,,,,,,,,,,,,,,,,,,,,,,,,,,alexproba_nobuttn,24,férfi,jobb,2021_Mar_10_1224,nback_task_v1,2021.1.2,60.0007800101518,
1,0,1,0,0,0,0,0,11,0,11,0,,,,,,,,,,,,,,,,,,,,,,,,,,,,,,,,,208.0007721,None,['u'],[0.022957000000019434],208.0007721,None,0.011772530000030201,0.3117725300000302,nback_2_practice,L,['u'],[0.022957000000019434],u,0.022957000000019434,false alarm,0,,,,,,,,,,,,,,,,,,,,,,,,,,,,,,,,,alexproba_nobuttn,24,férfi,jobb,2021_Mar_10_1224,nback_task_v1,2021.1.2,60.0007800101518,
1,0,1,0,0,0,0,0,12,0,12,0,,,,,,,,,,,,,,,,,,,,,,,,,,,,,,,,,208.36743430000007,None,['u'],[0.1362212000000227],208.36743430000007,None,0.011829730000044947,0.31182973000004494,nback_2_practice,Z,['u'],[0.1362212000000227],u,0.1362212000000227,hit,1,,,,,,,,,,,,,,,,,,,,,,,,,,,,,,,,,alexproba_nobuttn,24,férfi,jobb,2021_Mar_10_1224,nback_task_v1,2021.1.2,60.0007800101518,
1,0,1,0,0,0,0,0,13,0,13,0,,,,,,,,,,,,,,,,,,,,,,,,,,,,,,,,,208.85077070000006,None,['u'],[0.1408636999999544],208.85077070000006,None,0.011486529999842787,0.3114865299998428,nback_2_practice,J,['u'],[0.1408636999999544],u,0.1408636999999544,false alarm,0,,,,,,,,,,,,,,,,,,,,,,,,,,,,,,,,,alexproba_nobuttn,24,férfi,jobb,2021_Mar_10_1224,nback_task_v1,2021.1.2,60.0007800101518,
1,0,1,0,0,0,0,0,14,0,14,0,,,,,,,,,,,,,,,,,,,,,,,,,,,,,,,,,209.33412349999998,None,['u'],[0.1614888000000292],209.33412349999998,None,0.012021030000028077,0.31202103000002807,nback_2_practice,Y,['u'],[0.1614888000000292],u,0.1614888000000292,false alarm,0,,,,,,,,,,,,,,,,,,,,,,,,,,,,,,,,,alexproba_nobuttn,24,férfi,jobb,2021_Mar_10_1224,nback_task_v1,2021.1.2,60.0007800101518,
1,0,1,0,0,0,0,0,15,0,15,0,,,,,,,,,,,,,,,,,,,,,,,,,,,,,,,,,209.8341294,None,['u'],[0.15748279999991155],209.8341294,None,0.012219429999959175,0.31221942999995916,nback_2_practice,D,['u'],[0.15748279999991155],u,0.15748279999991155,false alarm,0,,,,,,,,,,,,,,,,,,,,,,,,,,,,,,,,,alexproba_nobuttn,24,férfi,jobb,2021_Mar_10_1224,nback_task_v1,2021.1.2,60.0007800101518,
1,0,1,0,0,0,0,0,16,0,16,0,,,,,,,,,,,,,,,,,,,,,,,,,,,,,,,,,210.33415989999997,None,['u'],[0.017494299999953],210.33415989999997,None,0.012154129999998986,0.312154129999999,nback_2_practice,Y,['u'],[0.017494299999953],u,0.017494299999953,hit,1,,,,,,,,,,,,,,,,,,,,,,,,,,,,,,,,,alexproba_nobuttn,24,férfi,jobb,2021_Mar_10_1224,nback_task_v1,2021.1.2,60.0007800101518,
1,0,1,0,0,0,0,0,17,0,17,0,,,,,,,,,,,,,,,,,,,,,,,,,,,,,,,,,210.68417370000003,None,['u'],[0.05940550000002531],210.68417370000003,None,0.01163252999992892,0.3116325299999289,nback_2_practice,Q,['u'],[0.05940550000002531],u,0.05940550000002531,false alarm,0,,,,,,,,,,,,,,,,,,,,,,,,,,,,,,,,,alexproba_nobuttn,24,férfi,jobb,2021_Mar_10_1224,nback_task_v1,2021.1.2,60.0007800101518,
1,0,1,0,0,0,0,0,,,,,,,,,,,,,,,,,,,,,,,,,,,,,,,,,,,,,,,,,,,,,,,,,,,,,210.784109,None,u,0.1594479999999976,210.784109,None,,,,,,,,,,,,,,,,,,,,,,,,,,,alexproba_nobuttn,24,férfi,jobb,2021_Mar_10_1224,nback_task_v1,2021.1.2,60.0007800101518,
1,0,1,0,1,0,1,0,0,0,0,0,,,,,,,,,,,,,,,,,,,,,,,,,,,210.96739040000006,None,['space'],[0.5841523999999936],210.96739040000006,None,211.8675278,None,['u'],[0.15604880000000776],211.8675278,None,0.008903030000055878,0.30890303000005587,nback_2_practice,H,['u'],[0.15604880000000776],u,0.15604880000000776,false alarm,0,,,,,,,,,,,,,,,,,,,,,,,,,,,,,,,,,alexproba_nobuttn,24,férfi,jobb,2021_Mar_10_1224,nback_task_v1,2021.1.2,60.0007800101518,
1,0,1,0,1,0,1,0,1,0,1,0,,,,,,,,,,,,,,,,,,,,,,,,,,,,,,,,,212.36753449999998,None,['u'],[0.007930999999985033],212.36753449999998,None,0.010545630000024175,0.31054563000002416,nback_2_practice,L,['u'],[0.007930999999985033],u,0.007930999999985033,false alarm,0,,,,,,,,,,,,,,,,,,,,,,,,,,,,,,,,,alexproba_nobuttn,24,férfi,jobb,2021_Mar_10_1224,nback_task_v1,2021.1.2,60.0007800101518,
1,0,1,0,1,0,1,0,2,0,2,0,,,,,,,,,,,,,,,,,,,,,,,,,,,,,,,,,212.71755220000006,None,['u'],[0.17002600000000712],212.71755220000006,None,0.012138729999946918,0.3121387299999469,nback_2_practice,H,['u'],[0.17002600000000712],u,0.17002600000000712,hit,1,,,,,,,,,,,,,,,,,,,,,,,,,,,,,,,,,alexproba_nobuttn,24,férfi,jobb,2021_Mar_10_1224,nback_task_v1,2021.1.2,60.0007800101518,
1,0,1,0,1,0,1,0,3,0,3,0,,,,,,,,,,,,,,,,,,,,,,,,,,,,,,,,,213.23419630000006,None,['u'],[0.1734963000000107],213.23419630000006,None,0.012122529999942344,0.31212252999994233,nback_2_practice,S,['u'],[0.1734963000000107],u,0.1734963000000107,false alarm,0,,,,,,,,,,,,,,,,,,,,,,,,,,,,,,,,,alexproba_nobuttn,24,férfi,jobb,2021_Mar_10_1224,nback_task_v1,2021.1.2,60.0007800101518,
1,0,1,0,1,0,1,0,4,0,4,0,,,,,,,,,,,,,,,,,,,,,,,,,,,,,,,,,213.75087780000007,None,['u'],[0.016750699999988683],213.75087780000007,None,0.011409430000071552,0.31140943000007154,nback_2_practice,J,['u'],[0.016750699999988683],u,0.016750699999988683,false alarm,0,,,,,,,,,,,,,,,,,,,,,,,,,,,,,,,,,alexproba_nobuttn,24,férfi,jobb,2021_Mar_10_1224,nback_task_v1,2021.1.2,60.0007800101518,
1,0,1,0,1,0,1,0,5,0,5,0,,,,,,,,,,,,,,,,,,,,,,,,,,,,,,,,,214.10090280000003,None,['u'],[0.034699000000046],214.10090280000003,None,0.01206653000008373,0.3120665300000837,nback_2_practice,Y,['u'],[0.034699000000046],u,0.034699000000046,false alarm,0,,,,,,,,,,,,,,,,,,,,,,,,,,,,,,,,,alexproba_nobuttn,24,férfi,jobb,2021_Mar_10_1224,nback_task_v1,2021.1.2,60.0007800101518,
1,0,1,0,1,0,1,0,6,0,6,0,,,,,,,,,,,,,,,,,,,,,,,,,,,,,,,,,214.4674888,None,['u'],[0.0280964999999469],214.4674888,None,0.012219630000004145,0.31221963000000413,nback_2_practice,P,['u'],[0.0280964999999469],u,0.0280964999999469,false alarm,0,,,,,,,,,,,,,,,,,,,,,,,,,,,,,,,,,alexproba_nobuttn,24,férfi,jobb,2021_Mar_10_1224,nback_task_v1,2021.1.2,60.0007800101518,
1,0,1,0,1,0,1,0,7,0,7,0,,,,,,,,,,,,,,,,,,,,,,,,,,,,,,,,,214.83421549999997,None,['u'],[0.013415600000030281],214.83421549999997,None,0.01188812999998845,0.31188812999998844,nback_2_practice,H,['u'],[0.013415600000030281],u,0.013415600000030281,false alarm,0,,,,,,,,,,,,,,,,,,,,,,,,,,,,,,,,,alexproba_nobuttn,24,férfi,jobb,2021_Mar_10_1224,nback_task_v1,2021.1.2,60.0007800101518,
1,0,1,0,1,0,1,0,8,0,8,0,,,,,,,,,,,,,,,,,,,,,,,,,,,,,,,,,215.18429020000002,None,['u'],[0.023310799999990195],215.18429020000002,None,0.011954930000001696,0.3119549300000017,nback_2_practice,J,['u'],[0.023310799999990195],u,0.023310799999990195,false alarm,0,,,,,,,,,,,,,,,,,,,,,,,,,,,,,,,,,alexproba_nobuttn,24,férfi,jobb,2021_Mar_10_1224,nback_task_v1,2021.1.2,60.0007800101518,
1,0,1,0,1,0,1,0,9,0,9,0,,,,,,,,,,,,,,,,,,,,,,,,,,,,,,,,,215.61749520000006,None,['u'],[0.11822779999999966],215.61749520000006,None,0.01170273000002453,0.3117027300000245,nback_2_practice,F,['u'],[0.11822779999999966],u,0.11822779999999966,false alarm,0,,,,,,,,,,,,,,,,,,,,,,,,,,,,,,,,,alexproba_nobuttn,24,férfi,jobb,2021_Mar_10_1224,nback_task_v1,2021.1.2,60.0007800101518,
1,0,1,0,1,0,1,0,10,0,10,0,,,,,,,,,,,,,,,,,,,,,,,,,,,,,,,,,216.06761,None,['u'],[0.035970199999951546],216.06761,None,0.011438429999998334,0.3114384299999983,nback_2_practice,Z,['u'],[0.035970199999951546],u,0.035970199999951546,false alarm,0,,,,,,,,,,,,,,,,,,,,,,,,,,,,,,,,,alexproba_nobuttn,24,férfi,jobb,2021_Mar_10_1224,nback_task_v1,2021.1.2,60.0007800101518,
1,0,1,0,1,0,1,0,11,0,11,0,,,,,,,,,,,,,,,,,,,,,,,,,,,,,,,,,216.45099280000005,None,['u'],[0.028607800000031602],216.45099280000005,None,0.011485130000096433,0.3114851300000964,nback_2_practice,L,['u'],[0.028607800000031602],u,0.028607800000031602,false alarm,0,,,,,,,,,,,,,,,,,,,,,,,,,,,,,,,,,alexproba_nobuttn,24,férfi,jobb,2021_Mar_10_1224,nback_task_v1,2021.1.2,60.0007800101518,
1,0,1,0,1,0,1,0,12,0,12,0,,,,,,,,,,,,,,,,,,,,,,,,,,,,,,,,,216.81757980000003,None,['u'],[0.038154599999984384],216.81757980000003,None,0.011363429999960317,0.3113634299999603,nback_2_practice,Z,['u'],[0.038154599999984384],u,0.038154599999984384,hit,1,,,,,,,,,,,,,,,,,,,,,,,,,,,,,,,,,alexproba_nobuttn,24,férfi,jobb,2021_Mar_10_1224,nback_task_v1,2021.1.2,60.0007800101518,
1,0,1,0,1,0,1,0,13,0,13,0,,,,,,,,,,,,,,,,,,,,,,,,,,,,,,,,,217.20089000000002,None,['u'],[0.0226114999999254],217.20089000000002,None,0.011868829999912123,0.3118688299999121,nback_2_practice,J,['u'],[0.0226114999999254],u,0.0226114999999254,false alarm,0,,,,,,,,,,,,,,,,,,,,,,,,,,,,,,,,,alexproba_nobuttn,24,férfi,jobb,2021_Mar_10_1224,nback_task_v1,2021.1.2,60.0007800101518,
1,0,1,0,1,0,1,0,14,0,14,0,,,,,,,,,,,,,,,,,,,,,,,,,,,,,,,,,217.56763510000002,None,['u'],[0.015910300000086863],217.56763510000002,None,0.01166952999994919,0.3116695299999492,nback_2_practice,Y,['u'],[0.015910300000086863],u,0.015910300000086863,false alarm,0,,,,,,,,,,,,,,,,,,,,,,,,,,,,,,,,,alexproba_nobuttn,24,férfi,jobb,2021_Mar_10_1224,nback_task_v1,2021.1.2,60.0007800101518,
1,0,1,0,1,0,1,0,15,0,15,0,,,,,,,,,,,,,,,,,,,,,,,,,,,,,,,,,217.9176577,None,['u'],[0.025969900000063717],217.9176577,None,0.012035929999910877,0.31203592999991087,nback_2_practice,D,['u'],[0.025969900000063717],u,0.025969900000063717,false alarm,0,,,,,,,,,,,,,,,,,,,,,,,,,,,,,,,,,alexproba_nobuttn,24,férfi,jobb,2021_Mar_10_1224,nback_task_v1,2021.1.2,60.0007800101518,
1,0,1,0,1,0,1,0,16,0,16,0,,,,,,,,,,,,,,,,,,,,,,,,,,,,,,,,,218.2844237,None,['u'],[0.01921540000000732],218.2844237,None,0.011144429999944805,0.3111444299999448,nback_2_practice,Y,['u'],[0.01921540000000732],u,0.01921540000000732,hit,1,,,,,,,,,,,,,,,,,,,,,,,,,,,,,,,,,alexproba_nobuttn,24,férfi,jobb,2021_Mar_10_1224,nback_task_v1,2021.1.2,60.0007800101518,
1,0,1,0,1,0,1,0,17,0,17,0,,,,,,,,,,,,,,,,,,,,,,,,,,,,,,,,,218.6510086,None,['u'],[0.004645399999958499],218.6510086,None,0.011948729999971874,0.31194872999997186,nback_2_practice,Q,['u'],[0.004645399999958499],u,0.004645399999958499,false alarm,0,,,,,,,,,,,,,,,,,,,,,,,,,,,,,,,,,alexproba_nobuttn,24,férfi,jobb,2021_Mar_10_1224,nback_task_v1,2021.1.2,60.0007800101518,
1,0,1,0,1,0,1,0,,,,,,,,,,,,,,,,,,,,,,,,,,,,,,,,,,,,,,,,,,,,,,,,,,,,,218.70098109999998,None,u,0.17049759999997605,218.70098109999998,None,,,,,,,,,,,,,,,,,,,,,,,,,,,alexproba_nobuttn,24,férfi,jobb,2021_Mar_10_1224,nback_task_v1,2021.1.2,60.0007800101518,
1,0,1,0,2,0,2,0,0,0,0,0,,,,,,,,,,,,,,,,,,,,,,,,,,,218.90099149999998,None,['space'],[0.7387555000000248],218.90099149999998,None,219.9676857,None,['u'],[0.15185730000007425],219.9676857,None,0.008533530000022438,0.3085335300000224,nback_2_practice,H,['u'],[0.15185730000007425],u,0.15185730000007425,false alarm,0,,,,,,,,,,,,,,,,,,,,,,,,,,,,,,,,,alexproba_nobuttn,24,férfi,jobb,2021_Mar_10_1224,nback_task_v1,2021.1.2,60.0007800101518,
1,0,1,0,2,0,2,0,1,0,1,0,,,,,,,,,,,,,,,,,,,,,,,,,,,,,,,,,220.4510522,None,['u'],[0.02053739999996651],220.4510522,None,0.010909429999969689,0.3109094299999697,nback_2_practice,L,['u'],[0.02053739999996651],u,0.02053739999996651,false alarm,0,,,,,,,,,,,,,,,,,,,,,,,,,,,,,,,,,alexproba_nobuttn,24,férfi,jobb,2021_Mar_10_1224,nback_task_v1,2021.1.2,60.0007800101518,
1,0,1,0,2,0,2,0,2,0,2,0,,,,,,,,,,,,,,,,,,,,,,,,,,,,,,,,,220.8177387,None,['u'],[0.021923899999933383],220.8177387,None,0.012367030000064005,0.312367030000064,nback_2_practice,H,['u'],[0.021923899999933383],u,0.021923899999933383,hit,1,,,,,,,,,,,,,,,,,,,,,,,,,,,,,,,,,alexproba_nobuttn,24,férfi,jobb,2021_Mar_10_1224,nback_task_v1,2021.1.2,60.0007800101518,
1,0,1,0,2,0,2,0,3,0,3,0,,,,,,,,,,,,,,,,,,,,,,,,,,,,,,,,,221.18442169999997,None,['u'],[0.039206199999966884],221.18442169999997,None,0.012043429999948785,0.3120434299999488,nback_2_practice,S,['u'],[0.039206199999966884],u,0.039206199999966884,false alarm,0,,,,,,,,,,,,,,,,,,,,,,,,,,,,,,,,,alexproba_nobuttn,24,férfi,jobb,2021_Mar_10_1224,nback_task_v1,2021.1.2,60.0007800101518,
1,0,1,0,2,0,2,0,4,0,4,0,,,,,,,,,,,,,,,,,,,,,,,,,,,,,,,,,221.56775280000005,None,['u'],[0.023817399999984445],221.56775280000005,None,0.012267729999962285,0.3122677299999623,nback_2_practice,J,['u'],[0.023817399999984445],u,0.023817399999984445,false alarm,0,,,,,,,,,,,,,,,,,,,,,,,,,,,,,,,,,alexproba_nobuttn,24,férfi,jobb,2021_Mar_10_1224,nback_task_v1,2021.1.2,60.0007800101518,
1,0,1,0,2,0,2,0,5,0,5,0,,,,,,,,,,,,,,,,,,,,,,,,,,,,,,,,,221.93443270000006,None,['u'],[0.04113500000005388],221.93443270000006,None,0.011980930000049739,0.3119809300000497,nback_2_practice,Y,['u'],[0.04113500000005388],u,0.04113500000005388,false alarm,0,,,,,,,,,,,,,,,,,,,,,,,,,,,,,,,,,alexproba_nobuttn,24,férfi,jobb,2021_Mar_10_1224,nback_task_v1,2021.1.2,60.0007800101518,
1,0,1,0,2,0,2,0,6,0,6,0,,,,,,,,,,,,,,,,,,,,,,,,,,,,,,,,,222.31772040000004,None,['u'],[0.049988299999995434],222.31772040000004,None,0.011584230000039497,0.3115842300000395,nback_2_practice,P,['u'],[0.049988299999995434],u,0.049988299999995434,false alarm,0,,,,,,,,,,,,,,,,,,,,,,,,,,,,,,,,,alexproba_nobuttn,24,férfi,jobb,2021_Mar_10_1224,nback_task_v1,2021.1.2,60.0007800101518,
1,0,1,0,2,0,2,0,7,0,7,0,,,,,,,,,,,,,,,,,,,,,,,,,,,,,,,,,222.70115730000003,None,['u'],[0.042388699999946766],222.70115730000003,None,0.012200530000086474,0.31220053000008646,nback_2_practice,H,['u'],[0.042388699999946766],u,0.042388699999946766,false alarm,0,,,,,,,,,,,,,,,,,,,,,,,,,,,,,,,,,alexproba_nobuttn,24,férfi,jobb,2021_Mar_10_1224,nback_task_v1,2021.1.2,60.0007800101518,
1,0,1,0,2,0,2,0,8,0,8,0,,,,,,,,,,,,,,,,,,,,,,,,,,,,,,,,,223.08444630000002,None,['u'],[0.0591752999999926],223.08444630000002,None,0.011761330000013004,0.311761330000013,nback_2_practice,J,['u'],[0.0591752999999926],u,0.0591752999999926,false alarm,0,,,,,,,,,,,,,,,,,,,,,,,,,,,,,,,,,alexproba_nobuttn,24,férfi,jobb,2021_Mar_10_1224,nback_task_v1,2021.1.2,60.0007800101518,
1,0,1,0,2,0,2,0,9,0,9,0,,,,,,,,,,,,,,,,,,,,,,,,,,,,,,,,,223.48443170000002,None,['u'],[0.059168200000044635],223.48443170000002,None,0.01132753000001685,0.31132753000001684,nback_2_practice,F,['u'],[0.059168200000044635],u,0.059168200000044635,false alarm,0,,,,,,,,,,,,,,,,,,,,,,,,,,,,,,,,,alexproba_nobuttn,24,férfi,jobb,2021_Mar_10_1224,nback_task_v1,2021.1.2,60.0007800101518,
1,0,1,0,2,0,2,0,10,0,10,0,,,,,,,,,,,,,,,,,,,,,,,,,,,,,,,,,223.88442820000006,None,['u'],[0.02713389999996707],223.88442820000006,None,0.011638029999971877,0.31163802999997187,nback_2_practice,Z,['u'],[0.02713389999996707],u,0.02713389999996707,false alarm,0,,,,,,,,,,,,,,,,,,,,,,,,,,,,,,,,,alexproba_nobuttn,24,férfi,jobb,2021_Mar_10_1224,nback_task_v1,2021.1.2,60.0007800101518,
1,0,1,0,2,0,2,0,11,0,11,0,,,,,,,,,,,,,,,,,,,,,,,,,,,,,,,,,224.25116380000003,None,['u'],[0.028496300000028896],224.25116380000003,None,0.011626330000012786,0.3116263300000128,nback_2_practice,L,['u'],[0.028496300000028896],u,0.028496300000028896,false alarm,0,,,,,,,,,,,,,,,,,,,,,,,,,,,,,,,,,alexproba_nobuttn,24,férfi,jobb,2021_Mar_10_1224,nback_task_v1,2021.1.2,60.0007800101518,
1,0,1,0,2,0,2,0,12,0,12,0,,,,,,,,,,,,,,,,,,,,,,,,,,,,,,,,,224.6177591,None,['u'],[0.0218853000000081],224.6177591,None,0.011077730000010888,0.3110777300000109,nback_2_practice,Z,['u'],[0.0218853000000081],u,0.0218853000000081,hit,1,,,,,,,,,,,,,,,,,,,,,,,,,,,,,,,,,alexproba_nobuttn,24,férfi,jobb,2021_Mar_10_1224,nback_task_v1,2021.1.2,60.0007800101518,
1,0,1,0,2,0,2,0,13,0,13,0,,,,,,,,,,,,,,,,,,,,,,,,,,,,,,,,,224.9844999,None,['u'],[0.015098200000011275],224.9844999,None,0.011843829999861555,0.31184382999986154,nback_2_practice,J,['u'],[0.015098200000011275],u,0.015098200000011275,false alarm,0,,,,,,,,,,,,,,,,,,,,,,,,,,,,,,,,,alexproba_nobuttn,24,férfi,jobb,2021_Mar_10_1224,nback_task_v1,2021.1.2,60.0007800101518,
1,0,1,0,2,0,2,0,14,0,14,0,,,,,,,,,,,,,,,,,,,,,,,,,,,,,,,,,225.3344775,None,['u'],[0.009138099999972837],225.3344775,None,0.01169092999998611,0.3116909299999861,nback_2_practice,Y,['u'],[0.009138099999972837],u,0.009138099999972837,false alarm,0,,,,,,,,,,,,,,,,,,,,,,,,,,,,,,,,,alexproba_nobuttn,24,férfi,jobb,2021_Mar_10_1224,nback_task_v1,2021.1.2,60.0007800101518,
1,0,1,0,2,0,2,0,15,0,15,0,,,,,,,,,,,,,,,,,,,,,,,,,,,,,,,,,225.6844924,None,['u'],[0.01915689999998449],225.6844924,None,0.012218329999996058,0.31221832999999605,nback_2_practice,D,['u'],[0.01915689999998449],u,0.01915689999998449,false alarm,0,,,,,,,,,,,,,,,,,,,,,,,,,,,,,,,,,alexproba_nobuttn,24,férfi,jobb,2021_Mar_10_1224,nback_task_v1,2021.1.2,60.0007800101518,
1,0,1,0,2,0,2,0,16,0,16,0,,,,,,,,,,,,,,,,,,,,,,,,,,,,,,,,,226.05122710000006,None,['u'],[0.03636610000000928],226.05122710000006,None,0.01152082999999493,0.3115208299999949,nback_2_practice,Y,['u'],[0.03636610000000928],u,0.03636610000000928,hit,1,,,,,,,,,,,,,,,,,,,,,,,,,,,,,,,,,alexproba_nobuttn,24,férfi,jobb,2021_Mar_10_1224,nback_task_v1,2021.1.2,60.0007800101518,
1,0,1,0,2,0,2,0,17,0,17,0,,,,,,,,,,,,,,,,,,,,,,,,,,,,,,,,,226.4345255,None,['u'],[0.037084000000049855],226.4345255,None,0.011861530000032872,0.31186153000003286,nback_2_practice,Q,['u'],[0.037084000000049855],u,0.037084000000049855,false alarm,0,,,,,,,,,,,,,,,,,,,,,,,,,,,,,,,,,alexproba_nobuttn,24,férfi,jobb,2021_Mar_10_1224,nback_task_v1,2021.1.2,60.0007800101518,
1,0,1,0,2,0,2,0,,,,,,,,,,,,,,,,,,,,,,,,,,,,,,,,,,,,,,,,,,,,,,,,,,,,,226.51779879999998,None,u,0.137787000000003,226.51779879999998,None,,,,,,,,,,,,,,,,,,,,,,,,,,,alexproba_nobuttn,24,férfi,jobb,2021_Mar_10_1224,nback_task_v1,2021.1.2,60.0007800101518,
1,0,1,0,3,0,3,0,0,0,0,0,,,,,,,,,,,,,,,,,,,,,,,,,,,226.68448470000004,None,['space'],[0.779105100000038],226.68448470000004,None,227.7845762,None,['u'],[0.343051800000012],227.7845762,None,0.008205329999896094,0.3082053299998961,nback_2_practice,H,['u'],[0.343051800000012],u,0.343051800000012,false alarm,0,,,,,,,,,,,,,,,,,,,,,,,,,,,,,,,,,alexproba_nobuttn,24,férfi,jobb,2021_Mar_10_1224,nback_task_v1,2021.1.2,60.0007800101518,
1,0,1,0,3,0,3,0,1,0,1,0,,,,,,,,,,,,,,,,,,,,,,,,,,,,,,,,,228.4678346,None,['u'],[0.011756700000091769],228.4678346,None,0.011273429999960172,0.31127342999996016,nback_2_practice,L,['u'],[0.011756700000091769],u,0.011756700000091769,false alarm,0,,,,,,,,,,,,,,,,,,,,,,,,,,,,,,,,,alexproba_nobuttn,24,férfi,jobb,2021_Mar_10_1224,nback_task_v1,2021.1.2,60.0007800101518,
1,0,1,0,3,0,3,0,2,0,2,0,,,,,,,,,,,,,,,,,,,,,,,,,,,,,,,,,228.8179088,None,['u'],[0.029727200000024823],228.8179088,None,0.011983529999952225,0.3119835299999522,nback_2_practice,H,['u'],[0.029727200000024823],u,0.029727200000024823,hit,1,,,,,,,,,,,,,,,,,,,,,,,,,,,,,,,,,alexproba_nobuttn,24,férfi,jobb,2021_Mar_10_1224,nback_task_v1,2021.1.2,60.0007800101518,
1,0,1,0,3,0,3,0,3,0,3,0,,,,,,,,,,,,,,,,,,,,,,,,,,,,,,,,,229.18464880000005,None,['u'],[0.02293659999997999],229.18464880000005,None,0.011708929999940665,0.31170892999994065,nback_2_practice,S,['u'],[0.02293659999997999],u,0.02293659999997999,false alarm,0,,,,,,,,,,,,,,,,,,,,,,,,,,,,,,,,,alexproba_nobuttn,24,férfi,jobb,2021_Mar_10_1224,nback_task_v1,2021.1.2,60.0007800101518,
1,0,1,0,3,0,3,0,4,0,4,0,,,,,,,,,,,,,,,,,,,,,,,,,,,,,,,,,229.55129560000006,None,['u'],[0.024317799999948875],229.55129560000006,None,0.01177592999999888,0.31177592999999887,nback_2_practice,J,['u'],[0.024317799999948875],u,0.024317799999948875,false alarm,0,,,,,,,,,,,,,,,,,,,,,,,,,,,,,,,,,alexproba_nobuttn,24,férfi,jobb,2021_Mar_10_1224,nback_task_v1,2021.1.2,60.0007800101518,
1,0,1,0,3,0,3,0,5,0,5,0,,,,,,,,,,,,,,,,,,,,,,,,,,,,,,,,,229.91798820000002,None,['u'],[0.049770700000067336],229.91798820000002,None,0.011887630000046556,0.31188763000004655,nback_2_practice,Y,['u'],[0.049770700000067336],u,0.049770700000067336,false alarm,0,,,,,,,,,,,,,,,,,,,,,,,,,,,,,,,,,alexproba_nobuttn,24,férfi,jobb,2021_Mar_10_1224,nback_task_v1,2021.1.2,60.0007800101518,
1,0,1,0,3,0,3,0,6,0,6,0,,,,,,,,,,,,,,,,,,,,,,,,,,,,,,,,,230.30123840000005,None,['u'],[0.018415499999946405],230.30123840000005,None,0.012178130000052079,0.31217813000005207,nback_2_practice,P,['u'],[0.018415499999946405],u,0.018415499999946405,false alarm,0,,,,,,,,,,,,,,,,,,,,,,,,,,,,,,,,,alexproba_nobuttn,24,férfi,jobb,2021_Mar_10_1224,nback_task_v1,2021.1.2,60.0007800101518,
1,0,1,0,3,0,3,0,7,0,7,0,,,,,,,,,,,,,,,,,,,,,,,,,,,,,,,,,230.65134260000008,None,['u'],[0.012255100000061248],230.65134260000008,None,0.012222030000089035,0.312222030000089,nback_2_practice,H,['u'],[0.012255100000061248],u,0.012255100000061248,false alarm,0,,,,,,,,,,,,,,,,,,,,,,,,,,,,,,,,,alexproba_nobuttn,24,férfi,jobb,2021_Mar_10_1224,nback_task_v1,2021.1.2,60.0007800101518,
1,0,1,0,3,0,3,0,8,0,8,0,,,,,,,,,,,,,,,,,,,,,,,,,,,,,,,,,231.00126990000007,None,['u'],[0.014280999999982669],231.00126990000007,None,0.011616829999979927,0.3116168299999799,nback_2_practice,J,['u'],[0.014280999999982669],u,0.014280999999982669,false alarm,0,,,,,,,,,,,,,,,,,,,,,,,,,,,,,,,,,alexproba_nobuttn,24,férfi,jobb,2021_Mar_10_1224,nback_task_v1,2021.1.2,60.0007800101518,
1,0,1,0,3,0,3,0,9,0,9,0,,,,,,,,,,,,,,,,,,,,,,,,,,,,,,,,,231.35132170000003,None,['u'],[0.04044120000003204],231.35132170000003,None,0.011522030000037375,0.31152203000003736,nback_2_practice,F,['u'],[0.04044120000003204],u,0.04044120000003204,false alarm,0,,,,,,,,,,,,,,,,,,,,,,,,,,,,,,,,,alexproba_nobuttn,24,férfi,jobb,2021_Mar_10_1224,nback_task_v1,2021.1.2,60.0007800101518,
1,0,1,0,3,0,3,0,10,0,10,0,,,,,,,,,,,,,,,,,,,,,,,,,,,,,,,,,231.73466850000005,None,['u'],[0.040903999999954976],231.73466850000005,None,0.011562229999867668,0.31156222999986766,nback_2_practice,Z,['u'],[0.040903999999954976],u,0.040903999999954976,false alarm,0,,,,,,,,,,,,,,,,,,,,,,,,,,,,,,,,,alexproba_nobuttn,24,férfi,jobb,2021_Mar_10_1224,nback_task_v1,2021.1.2,60.0007800101518,
1,0,1,0,3,0,3,0,11,0,11,0,,,,,,,,,,,,,,,,,,,,,,,,,,,,,,,,,232.11801080000004,None,['u'],[0.0495675999999321],232.11801080000004,None,0.01198543000009522,0.3119854300000952,nback_2_practice,L,['u'],[0.0495675999999321],u,0.0495675999999321,false alarm,0,,,,,,,,,,,,,,,,,,,,,,,,,,,,,,,,,alexproba_nobuttn,24,férfi,jobb,2021_Mar_10_1224,nback_task_v1,2021.1.2,60.0007800101518,
1,0,1,0,3,0,3,0,12,0,12,0,,,,,,,,,,,,,,,,,,,,,,,,,,,,,,,,,232.50139610000002,None,['u'],[0.09020710000004328],232.50139610000002,None,0.011943730000098185,0.3119437300000982,nback_2_practice,Z,['u'],[0.09020710000004328],u,0.09020710000004328,hit,1,,,,,,,,,,,,,,,,,,,,,,,,,,,,,,,,,alexproba_nobuttn,24,férfi,jobb,2021_Mar_10_1224,nback_task_v1,2021.1.2,60.0007800101518,
1,0,1,0,3,0,3,0,13,0,13,0,,,,,,,,,,,,,,,,,,,,,,,,,,,,,,,,,232.93470240000005,None,['u'],[0.00888380000003508],232.93470240000005,None,0.011550929999998516,0.3115509299999985,nback_2_practice,J,['u'],[0.00888380000003508],u,0.00888380000003508,false alarm,0,,,,,,,,,,,,,,,,,,,,,,,,,,,,,,,,,alexproba_nobuttn,24,férfi,jobb,2021_Mar_10_1224,nback_task_v1,2021.1.2,60.0007800101518,
1,0,1,0,3,0,3,0,14,0,14,0,,,,,,,,,,,,,,,,,,,,,,,,,,,,,,,,,233.28473660000003,None,['u'],[0.018958600000019032],233.28473660000003,None,0.011195229999998446,0.31119522999999844,nback_2_practice,Y,['u'],[0.018958600000019032],u,0.018958600000019032,false alarm,0,,,,,,,,,,,,,,,,,,,,,,,,,,,,,,,,,alexproba_nobuttn,24,férfi,jobb,2021_Mar_10_1224,nback_task_v1,2021.1.2,60.0007800101518,
1,0,1,0,3,0,3,0,15,0,15,0,,,,,,,,,,,,,,,,,,,,,,,,,,,,,,,,,233.65141540000008,None,['u'],[0.2522491000000855],233.65141540000008,None,0.011336530000107814,0.3113365300001078,nback_2_practice,D,['u'],[0.2522491000000855],u,0.2522491000000855,false alarm,0,,,,,,,,,,,,,,,,,,,,,,,,,,,,,,,,,alexproba_nobuttn,24,férfi,jobb,2021_Mar_10_1224,nback_task_v1,2021.1.2,60.0007800101518,
1,0,1,0,3,0,3,0,16,0,16,0,,,,,,,,,,,,,,,,,,,,,,,,,,,,,,,,,234.25137869999998,None,['u'],[0.05220919999999296],234.25137869999998,None,0.011525029999916114,0.3115250299999161,nback_2_practice,Y,['u'],[0.05220919999999296],u,0.05220919999999296,hit,1,,,,,,,,,,,,,,,,,,,,,,,,,,,,,,,,,alexproba_nobuttn,24,férfi,jobb,2021_Mar_10_1224,nback_task_v1,2021.1.2,60.0007800101518,
1,0,1,0,3,0,3,0,17,0,17,0,,,,,,,,,,,,,,,,,,,,,,,,,,,,,,,,,234.65143840000002,None,['u'],[0.0522192000000814],234.65143840000002,None,0.011720829999944726,0.3117208299999447,nback_2_practice,Q,['u'],[0.0522192000000814],u,0.0522192000000814,false alarm,0,,,,,,,,,,,,,,,,,,,,,,,,,,,,,,,,,alexproba_nobuttn,24,férfi,jobb,2021_Mar_10_1224,nback_task_v1,2021.1.2,60.0007800101518,
1,0,1,0,3,0,3,0,,,,,,,,,,,,,,,,,,,,,,,,,,,,,,,,,,,,,,,,,,,,,,,,,,,,,234.75139560000008,None,i,0.5442388000000165,234.75139560000008,None,,,,,,,,,,,,,,,,,,,,,,,,,,,alexproba_nobuttn,24,férfi,jobb,2021_Mar_10_1224,nback_task_v1,2021.1.2,60.0007800101518,
1,0,1,0,,,,,,,,,0,0,0,0,0,0,0,0,,,,,,,,,,,,,,,,,,,,,,,,,,,,,,,,,nback_2_blokk1,Y,['u'],[0.08484070000008614],u,0.08484070000008614,false alarm,0,,,,,,,235.33469630000008,None,['space'],[0.38495829999999387],235.33469630000008,None,236.0348214,None,['u'],236.0348214,None,0.010885229999985313,0.3108852299999853,[0.08484070000008614],,,,,,,,,,,,,alexproba_nobuttn,24,férfi,jobb,2021_Mar_10_1224,nback_task_v1,2021.1.2,60.0007800101518,
1,0,1,0,,,,,,,,,0,0,0,0,1,0,1,0,,,,,,,,,,,,,,,,,,,,,,,,,,,,,,,,,nback_2_blokk1,D,['u'],[0.02007960000003095],u,0.02007960000003095,false alarm,0,,,,,,,,,,,,,236.4514635,None,['u'],236.4514635,None,0.0106115299998919,0.3106115299998919,[0.02007960000003095],,,,,,,,,,,,,alexproba_nobuttn,24,férfi,jobb,2021_Mar_10_1224,nback_task_v1,2021.1.2,60.0007800101518,
1,0,1,0,,,,,,,,,0,0,0,0,2,0,2,0,,,,,,,,,,,,,,,,,,,,,,,,,,,,,,,,,nback_2_blokk1,J,['u'],[0.11756930000001375],u,0.11756930000001375,false alarm,0,,,,,,,,,,,,,236.81809590000006,None,['u'],236.81809590000006,None,0.011560229999986404,0.3115602299999864,[0.11756930000001375],,,,,,,,,,,,,alexproba_nobuttn,24,férfi,jobb,2021_Mar_10_1224,nback_task_v1,2021.1.2,60.0007800101518,
1,0,1,0,,,,,,,,,0,0,0,0,3,0,3,0,,,,,,,,,,,,,,,,,,,,,,,,,,,,,,,,,nback_2_blokk1,F,['u'],[0.1395082999999886],u,0.1395082999999886,false alarm,0,,,,,,,,,,,,,237.26812940000008,None,['u'],237.26812940000008,None,0.011624829999846042,0.31162482999984603,[0.1395082999999886],,,,,,,,,,,,,alexproba_nobuttn,24,férfi,jobb,2021_Mar_10_1224,nback_task_v1,2021.1.2,60.0007800101518,
1,0,1,0,,,,,,,,,0,0,0,0,4,0,4,0,,,,,,,,,,,,,,,,,,,,,,,,,,,,,,,,,nback_2_blokk1,J,['u'],[0.13618220000000747],u,0.13618220000000747,hit,1,,,,,,,,,,,,,237.75150209999998,None,['u'],237.75150209999998,None,0.010892529999978251,0.31089252999997824,[0.13618220000000747],,,,,,,,,,,,,alexproba_nobuttn,24,férfi,jobb,2021_Mar_10_1224,nback_task_v1,2021.1.2,60.0007800101518,
1,0,1,0,,,,,,,,,0,0,0,0,5,0,5,0,,,,,,,,,,,,,,,,,,,,,,,,,,,,,,,,,nback_2_blokk1,L,['u'],[0.13263769999991837],u,0.13263769999991837,false alarm,0,,,,,,,,,,,,,238.23484320000006,None,['u'],238.23484320000006,None,0.011087230000043746,0.31108723000004374,[0.13263769999991837],,,,,,,,,,,,,alexproba_nobuttn,24,férfi,jobb,2021_Mar_10_1224,nback_task_v1,2021.1.2,60.0007800101518,
1,0,1,0,,,,,,,,,0,0,0,0,6,0,6,0,,,,,,,,,,,,,,,,,,,,,,,,,,,,,,,,,nback_2_blokk1,Z,['u'],[0.17804790000002413],u,0.17804790000002413,false alarm,0,,,,,,,,,,,,,238.70152180000008,None,['u'],238.70152180000008,None,0.011848330000020724,0.3118483300000207,[0.17804790000002413],,,,,,,,,,,,,alexproba_nobuttn,24,férfi,jobb,2021_Mar_10_1224,nback_task_v1,2021.1.2,60.0007800101518,
1,0,1,0,,,,,,,,,0,0,0,0,7,0,7,0,,,,,,,,,,,,,,,,,,,,,,,,,,,,,,,,,nback_2_blokk1,L,['u'],[0.1413579000000027],u,0.1413579000000027,hit,1,,,,,,,,,,,,,239.21825719999998,None,['u'],239.21825719999998,None,0.011142230000132258,0.31114223000013225,[0.1413579000000027],,,,,,,,,,,,,alexproba_nobuttn,24,férfi,jobb,2021_Mar_10_1224,nback_task_v1,2021.1.2,60.0007800101518,
1,0,1,0,,,,,,,,,0,0,0,0,8,0,8,0,,,,,,,,,,,,,,,,,,,,,,,,,,,,,,,,,nback_2_blokk1,F,['u'],[0.025989900000013222],u,0.025989900000013222,false alarm,0,,,,,,,,,,,,,239.7015359,None,['u'],239.7015359,None,0.011100530000021536,0.3111005300000215,[0.025989900000013222],,,,,,,,,,,,,alexproba_nobuttn,24,férfi,jobb,2021_Mar_10_1224,nback_task_v1,2021.1.2,60.0007800101518,
1,0,1,0,,,,,,,,,0,0,0,0,9,0,9,0,,,,,,,,,,,,,,,,,,,,,,,,,,,,,,,,,nback_2_blokk1,P,['u'],[0.12350270000001728],u,0.12350270000001728,false alarm,0,,,,,,,,,,,,,240.06816840000005,None,['u'],240.06816840000005,None,0.011174030000006496,0.3111740300000065,[0.12350270000001728],,,,,,,,,,,,,alexproba_nobuttn,24,férfi,jobb,2021_Mar_10_1224,nback_task_v1,2021.1.2,60.0007800101518,
1,0,1,0,,,,,,,,,0,0,0,0,10,0,10,0,,,,,,,,,,,,,,,,,,,,,,,,,,,,,,,,,nback_2_blokk1,D,['u'],[0.032691399999976056],u,0.032691399999976056,false alarm,0,,,,,,,,,,,,,240.53493229999998,None,['u'],240.53493229999998,None,0.011546529999918675,0.31154652999991866,[0.032691399999976056],,,,,,,,,,,,,alexproba_nobuttn,24,férfi,jobb,2021_Mar_10_1224,nback_task_v1,2021.1.2,60.0007800101518,
1,0,1,0,,,,,,,,,0,0,0,0,11,0,11,0,,,,,,,,,,,,,,,,,,,,,,,,,,,,,,,,,nback_2_blokk1,J,['u'],[0.08200899999997091],u,0.08200899999997091,false alarm,0,,,,,,,,,,,,,240.90158560000003,None,['u'],240.90158560000003,None,0.011267129999851022,0.311267129999851,[0.08200899999997091],,,,,,,,,,,,,alexproba_nobuttn,24,férfi,jobb,2021_Mar_10_1224,nback_task_v1,2021.1.2,60.0007800101518,
1,0,1,0,,,,,,,,,0,0,0,0,12,0,12,0,,,,,,,,,,,,,,,,,,,,,,,,,,,,,,,,,nback_2_blokk1,H,['u'],[0.009354599999937818],u,0.009354599999937818,false alarm,0,,,,,,,,,,,,,241.3182403,None,['u'],241.3182403,None,0.011210129999994933,0.3112101299999949,[0.009354599999937818],,,,,,,,,,,,,alexproba_nobuttn,24,férfi,jobb,2021_Mar_10_1224,nback_task_v1,2021.1.2,60.0007800101518,
1,0,1,0,,,,,,,,,0,0,0,0,13,0,13,0,,,,,,,,,,,,,,,,,,,,,,,,,,,,,,,,,nback_2_blokk1,J,['u'],[0.0354699999999184],u,0.0354699999999184,hit,1,,,,,,,,,,,,,241.66820009999998,None,['u'],241.66820009999998,None,0.010999530000049162,0.31099953000004915,[0.0354699999999184],,,,,,,,,,,,,alexproba_nobuttn,24,férfi,jobb,2021_Mar_10_1224,nback_task_v1,2021.1.2,60.0007800101518,
1,0,1,0,,,,,,,,,0,0,0,0,14,0,14,0,,,,,,,,,,,,,,,,,,,,,,,,,,,,,,,,,nback_2_blokk1,L,['u'],[0.028051600000026156],u,0.028051600000026156,false alarm,0,,,,,,,,,,,,,242.05160610000001,None,['u'],242.05160610000001,None,0.011063130000025012,0.311063130000025,[0.028051600000026156],,,,,,,,,,,,,alexproba_nobuttn,24,férfi,jobb,2021_Mar_10_1224,nback_task_v1,2021.1.2,60.0007800101518,
1,0,1,0,,,,,,,,,0,0,0,0,15,0,15,0,,,,,,,,,,,,,,,,,,,,,,,,,,,,,,,,,nback_2_blokk1,Q,['u'],[0.0612976999999546],u,0.0612976999999546,false alarm,0,,,,,,,,,,,,,242.41828479999998,None,['u'],242.41828479999998,None,0.011739729999931114,0.3117397299999311,[0.0612976999999546],,,,,,,,,,,,,alexproba_nobuttn,24,férfi,jobb,2021_Mar_10_1224,nback_task_v1,2021.1.2,60.0007800101518,
1,0,1,0,,,,,,,,,0,0,0,0,16,0,16,0,,,,,,,,,,,,,,,,,,,,,,,,,,,,,,,,,nback_2_blokk1,Y,['u'],[0.05334420000008322],u,0.05334420000008322,false alarm,0,,,,,,,,,,,,,242.8182966,None,['u'],242.8182966,None,0.011644330000081027,0.311644330000081,[0.05334420000008322],,,,,,,,,,,,,alexproba_nobuttn,24,férfi,jobb,2021_Mar_10_1224,nback_task_v1,2021.1.2,60.0007800101518,
1,0,1,0,,,,,,,,,0,0,0,0,17,0,17,0,,,,,,,,,,,,,,,,,,,,,,,,,,,,,,,,,nback_2_blokk1,J,['u'],[0.045290799999975206],u,0.045290799999975206,false alarm,0,,,,,,,,,,,,,243.21831000000003,None,['u'],243.21831000000003,None,0.010759030000031089,0.3107590300000311,[0.045290799999975206],,,,,,,,,,,,,alexproba_nobuttn,24,férfi,jobb,2021_Mar_10_1224,nback_task_v1,2021.1.2,60.0007800101518,
1,0,1,0,,,,,,,,,0,0,0,0,18,0,18,0,,,,,,,,,,,,,,,,,,,,,,,,,,,,,,,,,nback_2_blokk1,S,['u'],[0.07006909999995514],u,0.07006909999995514,false alarm,0,,,,,,,,,,,,,243.6015812,None,['u'],243.6015812,None,0.01106632999994872,0.3110663299999487,[0.07006909999995514],,,,,,,,,,,,,alexproba_nobuttn,24,férfi,jobb,2021_Mar_10_1224,nback_task_v1,2021.1.2,60.0007800101518,
1,0,1,0,,,,,,,,,0,0,0,0,19,0,19,0,,,,,,,,,,,,,,,,,,,,,,,,,,,,,,,,,nback_2_blokk1,J,['u'],[0.0693648999999823],u,0.0693648999999823,hit,1,,,,,,,,,,,,,244.01830639999997,None,['u'],244.01830639999997,None,0.010540129999981218,0.3105401299999812,[0.0693648999999823],,,,,,,,,,,,,alexproba_nobuttn,24,férfi,jobb,2021_Mar_10_1224,nback_task_v1,2021.1.2,60.0007800101518,
1,0,1,0,,,,,,,,,0,0,0,0,20,0,20,0,,,,,,,,,,,,,,,,,,,,,,,,,,,,,,,,,nback_2_blokk1,D,['u'],[0.05268710000007104],u,0.05268710000007104,false alarm,0,,,,,,,,,,,,,244.43499780000008,None,['u'],244.43499780000008,None,0.011055730000066433,0.3110557300000664,[0.05268710000007104],,,,,,,,,,,,,alexproba_nobuttn,24,férfi,jobb,2021_Mar_10_1224,nback_task_v1,2021.1.2,60.0007800101518,
1,0,1,0,,,,,,,,,0,0,0,0,21,0,21,0,,,,,,,,,,,,,,,,,,,,,,,,,,,,,,,,,nback_2_blokk1,Q,['u'],[0.028504300000008698],u,0.028504300000008698,false alarm,0,,,,,,,,,,,,,244.8350896,None,['u'],244.8350896,None,0.011192530000016632,0.3111925300000166,[0.028504300000008698],,,,,,,,,,,,,alexproba_nobuttn,24,férfi,jobb,2021_Mar_10_1224,nback_task_v1,2021.1.2,60.0007800101518,
1,0,1,0,,,,,,,,,0,0,0,0,22,0,22,0,,,,,,,,,,,,,,,,,,,,,,,,,,,,,,,,,nback_2_blokk1,Y,['u'],[0.06999570000004951],u,0.06999570000004951,false alarm,0,,,,,,,,,,,,,245.20167700000007,None,['u'],245.20167700000007,None,0.011160130000007484,0.3111601300000075,[0.06999570000004951],,,,,,,,,,,,,alexproba_nobuttn,24,férfi,jobb,2021_Mar_10_1224,nback_task_v1,2021.1.2,60.0007800101518,
1,0,1,0,,,,,,,,,0,0,0,0,23,0,23,0,,,,,,,,,,,,,,,,,,,,,,,,,,,,,,,,,nback_2_blokk1,H,['u'],[0.06118760000003931],u,0.06118760000003931,false alarm,0,,,,,,,,,,,,,245.61838300000005,None,['u'],245.61838300000005,None,0.011454030000095372,0.31145403000009536,[0.06118760000003931],,,,,,,,,,,,,alexproba_nobuttn,24,férfi,jobb,2021_Mar_10_1224,nback_task_v1,2021.1.2,60.0007800101518,
1,0,1,0,,,,,,,,,0,0,0,0,24,0,24,0,,,,,,,,,,,,,,,,,,,,,,,,,,,,,,,,,nback_2_blokk1,P,['u'],[0.07721049999997831],u,0.07721049999997831,false alarm,0,,,,,,,,,,,,,246.0183639,None,['u'],246.0183639,None,0.011590630000000601,0.3115906300000006,[0.07721049999997831],,,,,,,,,,,,,alexproba_nobuttn,24,férfi,jobb,2021_Mar_10_1224,nback_task_v1,2021.1.2,60.0007800101518,
1,0,1,0,,,,,,,,,0,0,0,0,25,0,25,0,,,,,,,,,,,,,,,,,,,,,,,,,,,,,,,,,nback_2_blokk1,H,['u'],[0.08469900000000052],u,0.08469900000000052,hit,1,,,,,,,,,,,,,246.43502660000007,None,['u'],246.43502660000007,None,0.01072042999999212,0.3107204299999921,[0.08469900000000052],,,,,,,,,,,,,alexproba_nobuttn,24,férfi,jobb,2021_Mar_10_1224,nback_task_v1,2021.1.2,60.0007800101518,
1,0,1,0,,,,,,,,,0,0,0,0,26,0,26,0,,,,,,,,,,,,,,,,,,,,,,,,,,,,,,,,,nback_2_blokk1,L,['u'],[0.0918547999999646],u,0.0918547999999646,false alarm,0,,,,,,,,,,,,,246.85174820000003,None,['u'],246.85174820000003,None,0.010986930000058237,0.3109869300000582,[0.0918547999999646],,,,,,,,,,,,,alexproba_nobuttn,24,férfi,jobb,2021_Mar_10_1224,nback_task_v1,2021.1.2,60.0007800101518,
1,0,1,0,,,,,,,,,0,0,0,0,27,0,27,0,,,,,,,,,,,,,,,,,,,,,,,,,,,,,,,,,nback_2_blokk1,S,['u'],[0.09065329999998539],u,0.09065329999998539,false alarm,0,,,,,,,,,,,,,247.2850113,None,['u'],247.2850113,None,0.011388130000000274,0.31138813000000026,[0.09065329999998539],,,,,,,,,,,,,alexproba_nobuttn,24,férfi,jobb,2021_Mar_10_1224,nback_task_v1,2021.1.2,60.0007800101518,
1,0,1,0,,,,,,,,,0,0,0,0,28,0,28,0,,,,,,,,,,,,,,,,,,,,,,,,,,,,,,,,,nback_2_blokk1,L,['u'],[0.08119629999998779],u,0.08119629999998779,hit,1,,,,,,,,,,,,,247.71840630000003,None,['u'],247.71840630000003,None,0.011175030000003972,0.31117503000000396,[0.08119629999998779],,,,,,,,,,,,,alexproba_nobuttn,24,férfi,jobb,2021_Mar_10_1224,nback_task_v1,2021.1.2,60.0007800101518,
1,0,1,0,,,,,,,,,0,0,0,0,29,0,29,0,,,,,,,,,,,,,,,,,,,,,,,,,,,,,,,,,nback_2_blokk1,Z,['u'],[0.09649209999997765],u,0.09649209999997765,false alarm,0,,,,,,,,,,,,,248.13510420000006,None,['u'],248.13510420000006,None,0.011148329999855378,0.31114832999985537,[0.09649209999997765],,,,,,,,,,,,,alexproba_nobuttn,24,férfi,jobb,2021_Mar_10_1224,nback_task_v1,2021.1.2,60.0007800101518,
1,0,1,0,,,,,,,,,0,0,0,0,30,0,30,0,,,,,,,,,,,,,,,,,,,,,,,,,,,,,,,,,nback_2_blokk1,Q,['u'],[0.07136769999999615],u,0.07136769999999615,false alarm,0,,,,,,,,,,,,,248.56841660000003,None,['u'],248.56841660000003,None,0.01141412999993463,0.3114141299999346,[0.07136769999999615],,,,,,,,,,,,,alexproba_nobuttn,24,férfi,jobb,2021_Mar_10_1224,nback_task_v1,2021.1.2,60.0007800101518,
1,0,1,0,,,,,,,,,0,0,0,0,31,0,31,0,,,,,,,,,,,,,,,,,,,,,,,,,,,,,,,,,nback_2_blokk1,S,['u'],[0.094413300000042],u,0.094413300000042,false alarm,0,,,,,,,,,,,,,248.9850743,None,['u'],248.9850743,None,0.011279830000034963,0.31127983000003495,[0.094413300000042],,,,,,,,,,,,,alexproba_nobuttn,24,férfi,jobb,2021_Mar_10_1224,nback_task_v1,2021.1.2,60.0007800101518,
1,0,1,0,,,,,,,,,0,0,0,0,32,0,32,0,,,,,,,,,,,,,,,,,,,,,,,,,,,,,,,,,nback_2_blokk1,Y,['u'],[0.06924479999997857],u,0.06924479999997857,false alarm,0,,,,,,,,,,,,,249.41845900000004,None,['u'],249.41845900000004,None,0.011483929999940301,0.3114839299999403,[0.06924479999997857],,,,,,,,,,,,,alexproba_nobuttn,24,férfi,jobb,2021_Mar_10_1224,nback_task_v1,2021.1.2,60.0007800101518,
1,0,1,0,,,,,,,,,0,0,0,0,33,0,33,0,,,,,,,,,,,,,,,,,,,,,,,,,,,,,,,,,nback_2_blokk1,H,['u'],[0.09243269999990389],u,0.09243269999990389,false alarm,0,,,,,,,,,,,,,249.83517799999998,None,['u'],249.83517799999998,None,0.011077630000045247,0.31107763000004524,[0.09243269999990389],,,,,,,,,,,,,alexproba_nobuttn,24,férfi,jobb,2021_Mar_10_1224,nback_task_v1,2021.1.2,60.0007800101518,
1,0,1,0,,,,,,,,,0,0,0,0,34,0,34,0,,,,,,,,,,,,,,,,,,,,,,,,,,,,,,,,,nback_2_blokk1,Y,['u'],[0.07508570000004511],u,0.07508570000004511,hit,1,,,,,,,,,,,,,250.2684949,None,['u'],250.2684949,None,0.011738129999912417,0.3117381299999124,[0.07508570000004511],,,,,,,,,,,,,alexproba_nobuttn,24,férfi,jobb,2021_Mar_10_1224,nback_task_v1,2021.1.2,60.0007800101518,
1,0,1,0,,,,,,,,,0,0,0,0,35,0,35,0,,,,,,,,,,,,,,,,,,,,,,,,,,,,,,,,,nback_2_blokk1,J,['u'],[0.09044170000004215],u,0.09044170000004215,false alarm,0,,,,,,,,,,,,,250.68518390000003,None,['u'],250.68518390000003,None,0.011244329999954061,0.31124432999995405,[0.09044170000004215],,,,,,,,,,,,,alexproba_nobuttn,24,férfi,jobb,2021_Mar_10_1224,nback_task_v1,2021.1.2,60.0007800101518,
1,0,1,0,,,,,,,,,0,0,0,0,36,0,36,0,,,,,,,,,,,,,,,,,,,,,,,,,,,,,,,,,nback_2_blokk1,P,['u'],[0.08112739999990026],u,0.08112739999990026,false alarm,0,,,,,,,,,,,,,251.11849120000005,None,['u'],251.11849120000005,None,0.011134429999970052,0.31113442999997004,[0.08112739999990026],,,,,,,,,,,,,alexproba_nobuttn,24,férfi,jobb,2021_Mar_10_1224,nback_task_v1,2021.1.2,60.0007800101518,
1,0,1,0,,,,,,,,,0,0,0,0,37,0,37,0,,,,,,,,,,,,,,,,,,,,,,,,,,,,,,,,,nback_2_blokk1,Z,['u'],[0.08056260000000748],u,0.08056260000000748,false alarm,0,,,,,,,,,,,,,251.53515870000007,None,['u'],251.53515870000007,None,0.01100653000003149,0.3110065300000315,[0.08056260000000748],,,,,,,,,,,,,alexproba_nobuttn,24,férfi,jobb,2021_Mar_10_1224,nback_task_v1,2021.1.2,60.0007800101518,
1,0,1,0,,,,,,,,,0,0,0,0,38,0,38,0,,,,,,,,,,,,,,,,,,,,,,,,,,,,,,,,,nback_2_blokk1,Y,['u'],[0.06367049999994379],u,0.06367049999994379,false alarm,0,,,,,,,,,,,,,251.9518953,None,['u'],251.9518953,None,0.011051530000031562,0.31105153000003155,[0.06367049999994379],,,,,,,,,,,,,alexproba_nobuttn,24,férfi,jobb,2021_Mar_10_1224,nback_task_v1,2021.1.2,60.0007800101518,
1,0,1,0,,,,,,,,,0,0,0,0,39,0,39,0,,,,,,,,,,,,,,,,,,,,,,,,,,,,,,,,,nback_2_blokk1,Q,['u'],[0.11980909999999767],u,0.11980909999999767,false alarm,0,,,,,,,,,,,,,252.35194800000005,None,['u'],252.35194800000005,None,0.011249629999952049,0.31124962999995204,[0.11980909999999767],,,,,,,,,,,,,alexproba_nobuttn,24,férfi,jobb,2021_Mar_10_1224,nback_task_v1,2021.1.2,60.0007800101518,
1,0,1,0,,,,,,,,,0,0,0,0,40,0,40,0,,,,,,,,,,,,,,,,,,,,,,,,,,,,,,,,,nback_2_blokk1,Y,['u'],[0.08512659999996686],u,0.08512659999996686,hit,1,,,,,,,,,,,,,252.81851640000008,None,['u'],252.81851640000008,None,0.010808129999986704,0.3108081299999867,[0.08512659999996686],,,,,,,,,,,,,alexproba_nobuttn,24,férfi,jobb,2021_Mar_10_1224,nback_task_v1,2021.1.2,60.0007800101518,
1,0,1,0,,,,,,,,,0,0,0,0,41,0,41,0,,,,,,,,,,,,,,,,,,,,,,,,,,,,,,,,,nback_2_blokk1,J,['u'],[0.11650320000001102],u,0.11650320000001102,false alarm,0,,,,,,,,,,,,,253.23521950000003,None,['u'],253.23521950000003,None,0.011581829999954607,0.3115818299999546,[0.11650320000001102],,,,,,,,,,,,,alexproba_nobuttn,24,férfi,jobb,2021_Mar_10_1224,nback_task_v1,2021.1.2,60.0007800101518,
1,0,1,0,,,,,,,,,0,0,0,0,42,0,42,0,,,,,,,,,,,,,,,,,,,,,,,,,,,,,,,,,nback_2_blokk1,Z,['u'],[0.07441319999998086],u,0.07441319999998086,false alarm,0,,,,,,,,,,,,,253.68522350000006,None,['u'],253.68522350000006,None,0.011571829999866168,0.31157182999986616,[0.07441319999998086],,,,,,,,,,,,,alexproba_nobuttn,24,férfi,jobb,2021_Mar_10_1224,nback_task_v1,2021.1.2,60.0007800101518,
1,0,1,0,,,,,,,,,0,0,0,0,43,0,43,0,,,,,,,,,,,,,,,,,,,,,,,,,,,,,,,,,nback_2_blokk1,J,['u'],[0.12166190000004917],u,0.12166190000004917,hit,1,,,,,,,,,,,,,254.10192280000007,None,['u'],254.10192280000007,None,0.011387030000037157,0.31138703000003715,[0.12166190000004917],,,,,,,,,,,,,alexproba_nobuttn,24,férfi,jobb,2021_Mar_10_1224,nback_task_v1,2021.1.2,60.0007800101518,
1,0,1,0,,,,,,,,,0,0,0,0,44,0,44,0,,,,,,,,,,,,,,,,,,,,,,,,,,,,,,,,,nback_2_blokk1,F,['u'],[0.04704190000006747],u,0.04704190000006747,false alarm,0,,,,,,,,,,,,,254.56854140000002,None,['u'],254.56854140000002,None,0.011489030000007006,0.311489030000007,[0.04704190000006747],,,,,,,,,,,,,alexproba_nobuttn,24,férfi,jobb,2021_Mar_10_1224,nback_task_v1,2021.1.2,60.0007800101518,
1,0,1,0,,,,,,,,,0,0,0,0,45,0,45,0,,,,,,,,,,,,,,,,,,,,,,,,,,,,,,,,,nback_2_blokk1,S,['u'],[0.0877308000000312],u,0.0877308000000312,false alarm,0,,,,,,,,,,,,,254.95185570000007,None,['u'],254.95185570000007,None,0.011292929999967782,0.31129292999996777,[0.0877308000000312],,,,,,,,,,,,,alexproba_nobuttn,24,férfi,jobb,2021_Mar_10_1224,nback_task_v1,2021.1.2,60.0007800101518,
1,0,1,0,,,,,,,,,0,0,0,0,46,0,46,0,,,,,,,,,,,,,,,,,,,,,,,,,,,,,,,,,nback_2_blokk1,F,['u'],[0.08637050000004365],u,0.08637050000004365,hit,1,,,,,,,,,,,,,255.38525810000004,None,['u'],255.38525810000004,None,0.01120023000009951,0.3112002300000995,[0.08637050000004365],,,,,,,,,,,,,alexproba_nobuttn,24,férfi,jobb,2021_Mar_10_1224,nback_task_v1,2021.1.2,60.0007800101518,
1,0,1,0,,,,,,,,,0,0,0,0,47,0,47,0,,,,,,,,,,,,,,,,,,,,,,,,,,,,,,,,,nback_2_blokk1,Q,['u'],[0.10105829999997695],u,0.10105829999997695,false alarm,0,,,,,,,,,,,,,255.81851820000003,None,['u'],255.81851820000003,None,0.011162229999968076,0.31116222999996807,[0.10105829999997695],,,,,,,,,,,,,alexproba_nobuttn,24,férfi,jobb,2021_Mar_10_1224,nback_task_v1,2021.1.2,60.0007800101518,
1,0,1,0,,,,,,,,,0,0,0,0,,,,,,,,,,,,,,,,,,,,,,,,,,,,,,,,,,,,,,,,,,,,,,,,,,,,,,,,,,,,,,,,,255.95191720000008,None,['space'],[0.9357127000000673],255.95191720000008,None,,,,,,,alexproba_nobuttn,24,férfi,jobb,2021_Mar_10_1224,nback_task_v1,2021.1.2,60.0007800101518,
1,0,1,0,,,,,,,,,1,0,1,0,0,0,0,0,,,,,,,,,,,,,,,,,,,,,,,,,,,,,,,,,nback_2_blokk2,S,['u'],[0.24629410000000007],u,0.24629410000000007,false alarm,0,,,,,,,,,,,,,257.3853105,None,['u'],257.3853105,None,0.011554329999853508,0.3115543299998535,[0.24629410000000007],,,,,,,,,,,,,alexproba_nobuttn,24,férfi,jobb,2021_Mar_10_1224,nback_task_v1,2021.1.2,60.0007800101518,
1,0,1,0,,,,,,,,,1,0,1,0,1,0,1,0,,,,,,,,,,,,,,,,,,,,,,,,,,,,,,,,,nback_2_blokk2,F,['u'],[0.007020600000032573],u,0.007020600000032573,false alarm,0,,,,,,,,,,,,,257.9686562,None,['u'],257.9686562,None,0.01096613000004254,0.31096613000004253,[0.007020600000032573],,,,,,,,,,,,,alexproba_nobuttn,24,férfi,jobb,2021_Mar_10_1224,nback_task_v1,2021.1.2,60.0007800101518,
1,0,1,0,,,,,,,,,1,0,1,0,2,0,2,0,,,,,,,,,,,,,,,,,,,,,,,,,,,,,,,,,nback_2_blokk2,S,['u'],[0.1690585999999712],u,0.1690585999999712,hit,1,,,,,,,,,,,,,258.31860810000006,None,['u'],258.31860810000006,None,0.011724929999900269,0.31172492999990026,[0.1690585999999712],,,,,,,,,,,,,alexproba_nobuttn,24,férfi,jobb,2021_Mar_10_1224,nback_task_v1,2021.1.2,60.0007800101518,
1,0,1,0,,,,,,,,,1,0,1,0,3,0,3,0,,,,,,,,,,,,,,,,,,,,,,,,,,,,,,,,,nback_2_blokk2,D,['u'],[0.13225549999992836],u,0.13225549999992836,false alarm,0,,,,,,,,,,,,,258.83537630000006,None,['u'],258.83537630000006,None,0.011400429999980588,0.3114004299999806,[0.13225549999992836],,,,,,,,,,,,,alexproba_nobuttn,24,férfi,jobb,2021_Mar_10_1224,nback_task_v1,2021.1.2,60.0007800101518,
1,0,1,0,,,,,,,,,1,0,1,0,4,0,4,0,,,,,,,,,,,,,,,,,,,,,,,,,,,,,,,,,nback_2_blokk2,H,['u'],[0.009619200000088313],u,0.009619200000088313,false alarm,0,,,,,,,,,,,,,259.30198850000005,None,['u'],259.30198850000005,None,0.011244729999930314,0.3112447299999303,[0.009619200000088313],,,,,,,,,,,,,alexproba_nobuttn,24,férfi,jobb,2021_Mar_10_1224,nback_task_v1,2021.1.2,60.0007800101518,
1,0,1,0,,,,,,,,,1,0,1,0,5,0,5,0,,,,,,,,,,,,,,,,,,,,,,,,,,,,,,,,,nback_2_blokk2,L,['u'],[0.1394310000000587],u,0.1394310000000587,false alarm,0,,,,,,,,,,,,,259.6520707,None,['u'],259.6520707,None,0.011421630000086225,0.3114216300000862,[0.1394310000000587],,,,,,,,,,,,,alexproba_nobuttn,24,férfi,jobb,2021_Mar_10_1224,nback_task_v1,2021.1.2,60.0007800101518,
1,0,1,0,,,,,,,,,1,0,1,0,6,0,6,0,,,,,,,,,,,,,,,,,,,,,,,,,,,,,,,,,nback_2_blokk2,Y,['u'],[0.056235300000025745],u,0.056235300000025745,false alarm,0,,,,,,,,,,,,,260.1353657,None,['u'],260.1353657,None,0.011289730000044074,0.31128973000004406,[0.056235300000025745],,,,,,,,,,,,,alexproba_nobuttn,24,férfi,jobb,2021_Mar_10_1224,nback_task_v1,2021.1.2,60.0007800101518,
1,0,1,0,,,,,,,,,1,0,1,0,7,0,7,0,,,,,,,,,,,,,,,,,,,,,,,,,,,,,,,,,nback_2_blokk2,L,['u'],[0.15219950000005156],u,0.15219950000005156,hit,1,,,,,,,,,,,,,260.53538870000006,None,['u'],260.53538870000006,None,0.011094429999957356,0.31109442999995734,[0.15219950000005156],,,,,,,,,,,,,alexproba_nobuttn,24,férfi,jobb,2021_Mar_10_1224,nback_task_v1,2021.1.2,60.0007800101518,
1,0,1,0,,,,,,,,,1,0,1,0,8,0,8,0,,,,,,,,,,,,,,,,,,,,,,,,,,,,,,,,,nback_2_blokk2,P,['u'],[0.18828229999996893],u,0.18828229999996893,false alarm,0,,,,,,,,,,,,,261.0354223,None,['u'],261.0354223,None,0.01148403000001963,0.3114840300000196,[0.18828229999996893],,,,,,,,,,,,,alexproba_nobuttn,24,férfi,jobb,2021_Mar_10_1224,nback_task_v1,2021.1.2,60.0007800101518,
1,0,1,0,,,,,,,,,1,0,1,0,9,0,9,0,,,,,,,,,,,,,,,,,,,,,,,,,,,,,,,,,nback_2_blokk2,H,['u'],[0.054829400000016904],u,0.054829400000016904,false alarm,0,,,,,,,,,,,,,261.5687433,None,['u'],261.5687433,None,0.011515730000041913,0.3115157300000419,[0.054829400000016904],,,,,,,,,,,,,alexproba_nobuttn,24,férfi,jobb,2021_Mar_10_1224,nback_task_v1,2021.1.2,60.0007800101518,
1,0,1,0,,,,,,,,,1,0,1,0,10,0,10,0,,,,,,,,,,,,,,,,,,,,,,,,,,,,,,,,,nback_2_blokk2,P,['u'],[0.04683039999997618],u,0.04683039999997618,hit,1,,,,,,,,,,,,,261.96872120000006,None,['u'],261.96872120000006,None,0.011635729999966316,0.3116357299999663,[0.04683039999997618],,,,,,,,,,,,,alexproba_nobuttn,24,férfi,jobb,2021_Mar_10_1224,nback_task_v1,2021.1.2,60.0007800101518,
1,0,1,0,,,,,,,,,1,0,1,0,11,0,11,0,,,,,,,,,,,,,,,,,,,,,,,,,,,,,,,,,nback_2_blokk2,S,['u'],[0.02345869999999195],u,0.02345869999999195,false alarm,0,,,,,,,,,,,,,262.3520656,None,['u'],262.3520656,None,0.010951829999839902,0.3109518299998399,[0.02345869999999195],,,,,,,,,,,,,alexproba_nobuttn,24,férfi,jobb,2021_Mar_10_1224,nback_task_v1,2021.1.2,60.0007800101518,
1,0,1,0,,,,,,,,,1,0,1,0,12,0,12,0,,,,,,,,,,,,,,,,,,,,,,,,,,,,,,,,,nback_2_blokk2,F,['u'],[0.0488662000000204],u,0.0488662000000204,false alarm,0,,,,,,,,,,,,,262.7187704,None,['u'],262.7187704,None,0.011455329999989772,0.31145532999998976,[0.0488662000000204],,,,,,,,,,,,,alexproba_nobuttn,24,férfi,jobb,2021_Mar_10_1224,nback_task_v1,2021.1.2,60.0007800101518,
1,0,1,0,,,,,,,,,1,0,1,0,13,0,13,0,,,,,,,,,,,,,,,,,,,,,,,,,,,,,,,,,nback_2_blokk2,S,['u'],[0.07341389999999137],u,0.07341389999999137,hit,1,,,,,,,,,,,,,263.10222930000003,None,['u'],263.10222930000003,None,0.011692229999994197,0.3116922299999942,[0.07341389999999137],,,,,,,,,,,,,alexproba_nobuttn,24,férfi,jobb,2021_Mar_10_1224,nback_task_v1,2021.1.2,60.0007800101518,
1,0,1,0,,,,,,,,,1,0,1,0,14,0,14,0,,,,,,,,,,,,,,,,,,,,,,,,,,,,,,,,,nback_2_blokk2,Q,['u'],[0.07304140000007919],u,0.07304140000007919,false alarm,0,,,,,,,,,,,,,263.51870130000003,None,['u'],263.51870130000003,None,0.011173929999927168,0.31117392999992716,[0.07304140000007919],,,,,,,,,,,,,alexproba_nobuttn,24,férfi,jobb,2021_Mar_10_1224,nback_task_v1,2021.1.2,60.0007800101518,
1,0,1,0,,,,,,,,,1,0,1,0,15,0,15,0,,,,,,,,,,,,,,,,,,,,,,,,,,,,,,,,,nback_2_blokk2,L,['u'],[0.07215589999998429],u,0.07215589999998429,false alarm,0,,,,,,,,,,,,,263.9354766000001,None,['u'],263.9354766000001,None,0.01099872999998297,0.31099872999998296,[0.07215589999998429],,,,,,,,,,,,,alexproba_nobuttn,24,férfi,jobb,2021_Mar_10_1224,nback_task_v1,2021.1.2,60.0007800101518,
1,0,1,0,,,,,,,,,1,0,1,0,16,0,16,0,,,,,,,,,,,,,,,,,,,,,,,,,,,,,,,,,nback_2_blokk2,P,['u'],[0.07948610000005374],u,0.07948610000005374,false alarm,0,,,,,,,,,,,,,264.3521374,None,['u'],264.3521374,None,0.011551829999916663,0.31155182999991665,[0.07948610000005374],,,,,,,,,,,,,alexproba_nobuttn,24,férfi,jobb,2021_Mar_10_1224,nback_task_v1,2021.1.2,60.0007800101518,
1,0,1,0,,,,,,,,,1,0,1,0,17,0,17,0,,,,,,,,,,,,,,,,,,,,,,,,,,,,,,,,,nback_2_blokk2,F,['u'],[0.07068320000007589],u,0.07068320000007589,false alarm,0,,,,,,,,,,,,,264.76893190000004,None,['u'],264.76893190000004,None,0.011587829999939459,0.31158782999993945,[0.07068320000007589],,,,,,,,,,,,,alexproba_nobuttn,24,férfi,jobb,2021_Mar_10_1224,nback_task_v1,2021.1.2,60.0007800101518,
1,0,1,0,,,,,,,,,1,0,1,0,18,0,18,0,,,,,,,,,,,,,,,,,,,,,,,,,,,,,,,,,nback_2_blokk2,S,['u'],[0.04613289999997505],u,0.04613289999997505,false alarm,0,,,,,,,,,,,,,265.1854725,None,['u'],265.1854725,None,0.011358630000131598,0.3113586300001316,[0.04613289999997505],,,,,,,,,,,,,alexproba_nobuttn,24,férfi,jobb,2021_Mar_10_1224,nback_task_v1,2021.1.2,60.0007800101518,
1,0,1,0,,,,,,,,,1,0,1,0,19,0,19,0,,,,,,,,,,,,,,,,,,,,,,,,,,,,,,,,,nback_2_blokk2,D,['u'],[0.038802400000008674],u,0.038802400000008674,false alarm,0,,,,,,,,,,,,,265.56883120000003,None,['u'],265.56883120000003,None,0.011235729999953037,0.311235729999953,[0.038802400000008674],,,,,,,,,,,,,alexproba_nobuttn,24,férfi,jobb,2021_Mar_10_1224,nback_task_v1,2021.1.2,60.0007800101518,
1,0,1,0,,,,,,,,,1,0,1,0,20,0,20,0,,,,,,,,,,,,,,,,,,,,,,,,,,,,,,,,,nback_2_blokk2,L,['u'],[0.0715455000000702],u,0.0715455000000702,false alarm,0,,,,,,,,,,,,,265.95216080000006,None,['u'],265.95216080000006,None,0.011306230000059259,0.31130623000005925,[0.0715455000000702],,,,,,,,,,,,,alexproba_nobuttn,24,férfi,jobb,2021_Mar_10_1224,nback_task_v1,2021.1.2,60.0007800101518,
1,0,1,0,,,,,,,,,1,0,1,0,21,0,21,0,,,,,,,,,,,,,,,,,,,,,,,,,,,,,,,,,nback_2_blokk2,J,['u'],[0.11070189999998092],u,0.11070189999998092,false alarm,0,,,,,,,,,,,,,266.3688374,None,['u'],266.3688374,None,0.011778530000015053,0.31177853000001504,[0.11070189999998092],,,,,,,,,,,,,alexproba_nobuttn,24,férfi,jobb,2021_Mar_10_1224,nback_task_v1,2021.1.2,60.0007800101518,
